arrival_time,acc_x,acc_y,acc_z,rot_x,rot_y,rot_z,ir_dist
2021-06-28 12:43:41.914296,1.009521484375,-0.025634765625,0.028564453125,4.7607421875,-1.0986328125,-1.64794921875,12
2021-06-28 12:43:41.976430,1.034912109375,-0.022216796875,0.0269775390625,2.38037109375,-2.99072265625,-1.52587890625,13
2021-06-28 12:43:42.038032,1.0697021484375,-0.0079345703125,0.037353515625,-3.90625,-1.0986328125,-0.06103515625,12
2021-06-28 12:43:42.101210,1.031494140625,-0.04052734375,0.0318603515625,-11.3525390625,-4.21142578125,0.732421875,12
2021-06-28 12:43:42.164281,1.004638671875,-0.053466796875,0.0142822265625,-14.22119140625,-5.7373046875,0.9765625,13
2021-06-28 12:43:42.225570,1.0101318359375,-0.0489501953125,-0.00048828125,-11.71875,-2.3193359375,2.0751953125,12
2021-06-28 12:43:42.286958,0.9912109375,-0.04736328125,-0.0125732421875,-11.1083984375,-5.67626953125,2.3193359375,12
2021-06-28 12:43:42.347124,0.975830078125,-0.0150146484375,0.004150390625,2.38037109375,-3.5400390625,0.8544921875,12
2021-06-28 12:43:42.408303,0.9884033203125,-0.0245361328125,0.006591796875,12.63427734375,-3.41796875,-1.15966796875,12
2021-06-28 12:43:42.471049,0.9893798828125,-0.022216796875,0.017822265625,15.31982421875,-2.685546875,-0.67138671875,13
2021-06-28 12:43:42.532986,1.002685546875,-0.043701171875,0.0274658203125,8.4228515625,1.0986328125,1.0986328125,13
2021-06-28 12:43:42.594984,1.0078125,-0.0513916015625,0.0284423828125,2.25830078125,2.25830078125,2.74658203125,12
2021-06-28 12:43:42.656625,0.9886474609375,-0.0595703125,0.03369140625,-1.8310546875,1.3427734375,3.11279296875,12
2021-06-28 12:43:42.719106,1.0125732421875,-0.0633544921875,0.0416259765625,-2.99072265625,2.5634765625,3.41796875,12
2021-06-28 12:43:42.780829,1.0379638671875,-0.0406494140625,0.0447998046875,-4.69970703125,-0.3662109375,2.13623046875,12
2021-06-28 12:43:42.843658,1.0391845703125,-0.03271484375,0.04150390625,-1.52587890625,-0.67138671875,0.8544921875,12
2021-06-28 12:43:42.905289,1.0455322265625,-0.0450439453125,0.0255126953125,4.0283203125,-2.44140625,0.0,13
2021-06-28 12:43:42.967324,1.02734375,-0.0618896484375,0.02294921875,2.44140625,-7.568359375,-0.91552734375,13
2021-06-28 12:43:43.029818,1.003173828125,-0.06689453125,0.03662109375,-2.0751953125,-7.4462890625,0.06103515625,12
2021-06-28 12:43:43.093467,1.0146484375,-0.1025390625,0.033447265625,-6.7138671875,-4.33349609375,2.38037109375,12
2021-06-28 12:43:43.155901,0.9923095703125,-0.0738525390625,0.0130615234375,-8.6669921875,-3.173828125,3.90625,12
2021-06-28 12:43:43.218420,0.9935302734375,-0.0498046875,0.01318359375,-0.6103515625,-6.16455078125,-15.0146484375,12
2021-06-28 12:43:43.280170,0.99365234375,-0.0460205078125,0.026123046875,12.0849609375,-8.97216796875,-2.44140625,12
2021-06-28 12:43:43.341104,0.988525390625,-0.05322265625,0.0484619140625,18.24951171875,-5.43212890625,-2.685546875,13
2021-06-28 12:43:43.404007,0.99072265625,-0.0716552734375,0.059814453125,10.80322265625,-0.244140625,-0.48828125,12
2021-06-28 12:43:43.464983,0.99853515625,-0.083251953125,0.0517578125,1.40380859375,2.50244140625,1.77001953125,13
2021-06-28 12:43:43.527272,1.00830078125,-0.0823974609375,0.0338134765625,-2.3193359375,0.67138671875,1.15966796875,12
2021-06-28 12:43:43.590672,1.0074462890625,-0.08251953125,0.045166015625,2.38037109375,-4.8828125,-1.15966796875,13
2021-06-28 12:43:43.653180,1.0050048828125,-0.0927734375,0.0499267578125,7.080078125,-7.50732421875,-2.13623046875,13
2021-06-28 12:43:43.715367,1.0159912109375,-0.0994873046875,0.053955078125,9.27734375,-9.82666015625,-2.8076171875,12
2021-06-28 12:43:43.778228,1.068359375,-0.1009521484375,0.0338134765625,8.4228515625,-14.95361328125,-3.2958984375,12
2021-06-28 12:43:43.839490,1.0198974609375,-0.087158203125,0.026123046875,8.1787109375,-20.81298828125,-5.79833984375,13
2021-06-28 12:43:43.902316,0.9879150390625,-0.08056640625,0.037353515625,14.70947265625,-22.5830078125,-6.65283203125,12
2021-06-28 12:43:43.964267,1.0262451171875,-0.0823974609375,0.0367431640625,13.97705078125,-25.20751953125,-8.36181640625,13
2021-06-28 12:43:44.026695,1.095703125,-0.132080078125,0.00927734375,-1.220703125,-20.01953125,-2.685546875,12
2021-06-28 12:43:44.088491,1.0574951171875,-0.105712890625,-0.0113525390625,-14.6484375,-16.4794921875,1.708984375,12
2021-06-28 12:43:44.151085,0.978271484375,-0.122802734375,-0.03076171875,-10.68115234375,-13.0615234375,-0.3662109375,12
2021-06-28 12:43:44.213946,0.8798828125,-0.1253662109375,-0.013671875,12.75634765625,-10.009765625,-1.708984375,12
2021-06-28 12:43:44.277242,0.8580322265625,-0.0665283203125,0.01220703125,33.69140625,-6.4697265625,-3.2958984375,12
2021-06-28 12:43:44.339344,1.030029296875,-0.1112060546875,0.004150390625,42.236328125,-5.92041015625,-2.197265625,12
2021-06-28 12:43:44.402406,1.0418701171875,-0.0992431640625,0.0084228515625,17.88330078125,-9.1552734375,-1.28173828125,12
2021-06-28 12:43:44.464385,1.0615234375,-0.1329345703125,-0.009765625,5.92041015625,4.0283203125,2.25830078125,13
2021-06-28 12:43:44.527273,1.009765625,-0.196044921875,-0.0511474609375,3.60107421875,2.685546875,5.126953125,13
2021-06-28 12:43:44.590240,0.9456787109375,-0.0491943359375,-0.039794921875,-10.55908203125,0.6103515625,5.06591796875,12
2021-06-28 12:43:44.653274,1.01708984375,-0.0341796875,-0.0029296875,-15.93017578125,1.52587890625,4.21142578125,12
2021-06-28 12:43:44.715521,1.0877685546875,-0.055908203125,0.02197265625,-19.83642578125,-10.009765625,1.40380859375,12
2021-06-28 12:43:44.777208,1.062744140625,-0.0269775390625,0.05078125,-27.89306640625,-26.18408203125,-2.74658203125,12
2021-06-28 12:43:44.839283,1.1142578125,-0.0462646484375,0.047607421875,-6.103515625,-17.333984375,-1.52587890625,13
2021-06-28 12:43:44.901339,1.01953125,-0.0626220703125,0.0462646484375,-1.953125,-13.00048828125,-0.6103515625,12
2021-06-28 12:43:44.963347,0.9486083984375,-0.087890625,0.0711669921875,22.64404296875,-5.2490234375,1.52587890625,12
2021-06-28 12:43:45.025771,0.83544921875,-0.005859375,0.1143798828125,27.89306640625,-19.287109375,-0.9765625,12
2021-06-28 12:43:45.088467,0.8670654296875,0.066650390625,0.1319580078125,5.2490234375,-18.85986328125,-2.8076171875,12
2021-06-28 12:43:45.151220,0.950439453125,0.1649169921875,0.148193359375,11.53564453125,0.91552734375,-2.50244140625,12
2021-06-28 12:43:45.213254,0.9755859375,0.051513671875,0.0438232421875,1.52587890625,12.75634765625,-2.50244140625,12
2021-06-28 12:43:45.275506,0.93505859375,-0.0478515625,0.02197265625,-12.26806640625,6.4697265625,0.18310546875,13
2021-06-28 12:43:45.337825,0.9942626953125,-0.11474609375,0.05078125,-7.14111328125,17.08984375,11.3525390625,13
2021-06-28 12:43:45.400151,1.00244140625,-0.0174560546875,0.08154296875,38.39111328125,12.20703125,12.51220703125,12
2021-06-28 12:43:45.462324,1.3321533203125,-0.02880859375,0.0157470703125,51.1474609375,10.7421875,-1.220703125,12
2021-06-28 12:43:45.522792,1.2283935546875,-0.1104736328125,-0.080078125,35.0341796875,-11.3525390625,-7.01904296875,12
2021-06-28 12:43:45.585775,1.0782470703125,-0.293701171875,-0.14501953125,-2.86865234375,-5.2490234375,4.39453125,12
2021-06-28 12:43:45.648730,0.9117431640625,-0.1419677734375,-0.0860595703125,31.1279296875,22.03369140625,11.5966796875,13
2021-06-28 12:43:45.711201,0.94189453125,-0.0716552734375,-0.0421142578125,36.376953125,12.02392578125,4.39453125,13
2021-06-28 12:43:45.773757,0.9600830078125,-0.1376953125,-0.1051025390625,12.14599609375,-6.40869140625,-2.62451171875,13
2021-06-28 12:43:45.836911,0.994384765625,-0.2271728515625,-0.092529296875,8.544921875,-19.4091796875,-8.23974609375,12
2021-06-28 12:43:45.899852,1.0784912109375,-0.216552734375,-0.0625,-10.7421875,-17.7001953125,0.244140625,13
2021-06-28 12:43:45.962224,1.0263671875,-0.16845703125,-0.0128173828125,-37.109375,-3.90625,7.568359375,12
2021-06-28 12:43:46.023154,0.918212890625,-0.1943359375,0.0089111328125,-37.65869140625,-2.8076171875,4.08935546875,12
2021-06-28 12:43:46.085792,0.932861328125,-0.2188720703125,0.0010986328125,-8.36181640625,-5.615234375,-1.46484375,12
2021-06-28 12:43:46.135567,0.9219970703125,-0.249267578125,0.0006103515625,13.85498046875,-18.06640625,-5.92041015625,12
2021-06-28 12:43:46.197514,0.9200439453125,-0.20703125,0.0255126953125,19.59228515625,-30.3955078125,-8.23974609375,12
2021-06-28 12:43:46.259087,0.9603271484375,-0.2598876953125,0.0421142578125,5.37109375,-19.95849609375,-2.86865234375,12
2021-06-28 12:43:46.320659,0.92626953125,-0.2581787109375,0.022216796875,-21.91162109375,-11.41357421875,1.40380859375,13
2021-06-28 12:43:46.382143,0.9197998046875,-0.2613525390625,-0.005126953125,-24.96337890625,-5.126953125,0.54931640625,12
2021-06-28 12:43:46.444442,1.017578125,-0.186767578125,0.0380859375,-12.14599609375,-2.86865234375,-1.5869140625,13
2021-06-28 12:43:46.507037,1.0555419921875,-0.1328125,0.0694580078125,-25.390625,-11.5966796875,-4.150390625,12
2021-06-28 12:43:46.570191,1.0455322265625,-0.10498046875,0.0201416015625,-39.97802734375,-10.25390625,-5.67626953125,12
2021-06-28 12:43:46.631280,1.259765625,-0.1798095703125,-0.05126953125,-29.78515625,11.65771484375,-2.5634765625,12
2021-06-28 12:43:46.692437,1.36962890625,-0.0986328125,-0.0782470703125,-12.87841796875,15.5029296875,3.84521484375,12
2021-06-28 12:43:46.786713,1.115234375,-0.028076171875,-0.078857421875,-10.25390625,6.04248046875,0.54931640625,12
2021-06-28 12:43:46.848547,0.7752685546875,-0.199462890625,-0.21533203125,-4.69970703125,16.29638671875,-2.0751953125,12
2021-06-28 12:43:46.910215,0.7021484375,-0.2139892578125,-0.1763916015625,7.62939453125,28.80859375,2.74658203125,12
2021-06-28 12:43:46.972548,1.0894775390625,-0.0435791015625,-0.05419921875,-7.6904296875,16.05224609375,10.31494140625,12
2021-06-28 12:43:47.035580,1.03173828125,0.105712890625,-0.048828125,-12.51220703125,11.90185546875,17.39501953125,12
2021-06-28 12:43:47.096182,1.077880859375,0.1712646484375,0.046875,-56.45751953125,22.5830078125,6.40869140625,12
2021-06-28 12:43:47.159859,1.0589599609375,-0.046630859375,-0.0460205078125,-9.1552734375,5.31005859375,-1.8310546875,13
2021-06-28 12:43:47.222152,1.0953369140625,0.071533203125,0.001708984375,25.69580078125,-0.67138671875,-1.15966796875,12
2021-06-28 12:43:47.285110,1.0125732421875,-0.002685546875,0.014892578125,18.61572265625,-15.93017578125,-7.9345703125,12
2021-06-28 12:43:47.347462,0.8890380859375,-0.027587890625,0.0758056640625,10.6201171875,-21.8505859375,-7.14111328125,12
2021-06-28 12:43:47.410204,0.90771484375,-0.0145263671875,0.125244140625,22.15576171875,-23.37646484375,-7.32421875,12
2021-06-28 12:43:47.471477,0.9119873046875,-0.01220703125,0.1329345703125,29.052734375,-23.13232421875,-8.48388671875,12
2021-06-28 12:43:47.534164,0.9129638671875,-0.013916015625,0.12255859375,29.4189453125,-19.6533203125,-6.77490234375,13
2021-06-28 12:43:47.596296,0.955322265625,-0.0286865234375,0.1229248046875,27.34375,-7.75146484375,-0.1220703125,12
2021-06-28 12:43:47.659071,0.9908447265625,-0.0421142578125,0.0916748046875,23.8037109375,-4.39453125,2.86865234375,12
2021-06-28 12:43:47.722158,0.9110107421875,-0.047607421875,0.1134033203125,12.939453125,-2.8076171875,7.32421875,12
2021-06-28 12:43:47.786153,1.0013427734375,-0.064208984375,0.1202392578125,38.0859375,10.009765625,9.70458984375,12
2021-06-28 12:43:47.848399,1.0887451171875,-0.108154296875,0.086669921875,52.8564453125,1.8310546875,8.23974609375,12
2021-06-28 12:43:47.909736,1.128662109375,-0.061767578125,0.06982421875,42.3583984375,-8.48388671875,3.2958984375,12
2021-06-28 12:43:47.970240,1.2994384765625,-0.2364501953125,-0.0625,31.982421875,-10.07080078125,3.23486328125,13
2021-06-28 12:43:48.032737,1.1043701171875,-0.3031005859375,-0.1395263671875,-3.11279296875,-15.869140625,7.4462890625,12
2021-06-28 12:43:48.095043,1.031494140625,-0.27099609375,-0.0936279296875,33.50830078125,20.69091796875,14.0380859375,12
2021-06-28 12:43:48.156248,0.94384765625,-0.1124267578125,-0.088623046875,28.62548828125,7.50732421875,4.7607421875,12
2021-06-28 12:43:48.218282,0.9508056640625,-0.0706787109375,-0.154541015625,10.6201171875,10.25390625,0.06103515625,13
2021-06-28 12:43:48.282044,0.998779296875,-0.16064453125,-0.0948486328125,0.6103515625,-20.81298828125,-6.8359375,12
2021-06-28 12:43:48.345153,0.9222412109375,-0.2034912109375,-0.0064697265625,-5.4931640625,-35.0341796875,-12.6953125,12
2021-06-28 12:43:48.406249,0.959716796875,-0.277587890625,-0.0167236328125,8.6669921875,-29.78515625,-15.7470703125,12
2021-06-28 12:43:48.469179,0.9453125,-0.24658203125,0.0059814453125,16.05224609375,-28.74755859375,-12.63427734375,12
2021-06-28 12:43:48.532281,0.923583984375,-0.263671875,0.02392578125,4.0283203125,-31.8603515625,-7.8125,12
2021-06-28 12:43:48.595364,0.974853515625,-0.2335205078125,0.0386962890625,-15.07568359375,-17.7001953125,-0.8544921875,12
2021-06-28 12:43:48.658024,0.974609375,-0.242431640625,0.0042724609375,-47.30224609375,-18.6767578125,-1.15966796875,12
2021-06-28 12:43:48.720288,0.896728515625,-0.2279052734375,-0.03125,-46.32568359375,-9.70458984375,0.06103515625,12
2021-06-28 12:43:48.782453,0.9051513671875,-0.184326171875,0.00439453125,-25.20751953125,-4.21142578125,-3.47900390625,12
2021-06-28 12:43:48.844497,0.997802734375,-0.1544189453125,0.0491943359375,-6.89697265625,-2.38037109375,-4.150390625,12
2021-06-28 12:43:48.906817,0.9854736328125,-0.14013671875,0.0726318359375,-10.92529296875,-7.6904296875,-6.7138671875,12
2021-06-28 12:43:48.969349,1.0233154296875,-0.185546875,0.0323486328125,-21.3623046875,1.28173828125,-7.9345703125,13
2021-06-28 12:43:49.032159,1.06787109375,-0.205810546875,-0.004638671875,-26.30615234375,17.63916015625,-2.13623046875,12
2021-06-28 12:43:49.095663,1.461669921875,-0.2254638671875,-0.101806640625,-3.5400390625,37.4755859375,4.638671875,13
2021-06-28 12:43:49.158180,1.1497802734375,-0.0001220703125,-0.140869140625,-7.080078125,20.44677734375,8.60595703125,12
2021-06-28 12:43:49.219924,0.97021484375,-0.0467529296875,-0.1788330078125,-27.7099609375,39.9169921875,4.0283203125,12
2021-06-28 12:43:49.282169,0.9849853515625,-0.0887451171875,-0.1553955078125,-26.2451171875,38.2080078125,6.89697265625,13
2021-06-28 12:43:49.343926,0.8863525390625,0.091796875,-0.0428466796875,-41.6259765625,1.03759765625,9.033203125,13
2021-06-28 12:43:49.405962,0.9599609375,0.086669921875,0.0106201171875,-37.29248046875,19.6533203125,7.14111328125,13
2021-06-28 12:43:49.468543,1.060791015625,-0.0074462890625,-0.0087890625,-4.94384765625,-2.8076171875,0.30517578125,12
2021-06-28 12:43:49.531788,0.9930419921875,0.037841796875,-0.0146484375,16.29638671875,-15.7470703125,-1.15966796875,12
2021-06-28 12:43:49.593719,0.98095703125,0.0013427734375,0.062255859375,2.44140625,-19.95849609375,-2.8076171875,12
2021-06-28 12:43:49.656573,0.89404296875,0.0697021484375,0.10546875,6.04248046875,-25.2685546875,-4.82177734375,12
2021-06-28 12:43:49.719151,0.9656982421875,0.0093994140625,0.114990234375,35.2783203125,-17.76123046875,-8.30078125,12
2021-06-28 12:43:49.781529,0.9066162109375,-0.0037841796875,0.1314697265625,31.3720703125,-17.39501953125,-6.9580078125,12
2021-06-28 12:43:49.843602,0.9110107421875,0.02490234375,0.1318359375,28.13720703125,-11.23046875,-5.37109375,12
