arrival_time,acc_x,acc_y,acc_z,rot_x,rot_y,rot_z,ir_dist
2021-06-28 11:37:55.584462,0.4473876953125,0.4945068359375,-0.7706298828125,12.02392578125,-6.89697265625,-4.69970703125,6
2021-06-28 11:37:55.647865,0.4310302734375,0.514404296875,-0.7708740234375,10.009765625,-12.75634765625,-5.79833984375,6
2021-06-28 11:37:55.710257,0.4049072265625,0.4808349609375,-0.796630859375,30.94482421875,-13.73291015625,-8.056640625,6
2021-06-28 11:37:55.772208,0.4228515625,0.447509765625,-0.8060302734375,14.16015625,-11.77978515625,-7.99560546875,6
2021-06-28 11:37:55.833917,0.3818359375,0.4295654296875,-0.765869140625,4.5166015625,-14.404296875,-7.26318359375,6
2021-06-28 11:37:55.894620,0.3538818359375,0.43994140625,-0.77783203125,1.52587890625,-12.39013671875,-5.06591796875,6
2021-06-28 11:37:55.956482,0.3748779296875,0.4351806640625,-0.7904052734375,-0.67138671875,-9.27734375,-3.35693359375,6
2021-06-28 11:37:56.018264,0.376953125,0.4000244140625,-0.8375244140625,8.1787109375,-8.056640625,-0.8544921875,6
2021-06-28 11:37:56.079355,0.39013671875,0.484619140625,-0.7459716796875,44.7998046875,-17.4560546875,-0.54931640625,7
2021-06-28 11:37:56.142555,0.37646484375,0.373779296875,-0.816162109375,38.51318359375,-13.12255859375,-2.99072265625,7
2021-06-28 11:37:56.203768,0.3822021484375,0.3638916015625,-0.8297119140625,-40.58837890625,0.732421875,-6.2255859375,7
2021-06-28 11:37:56.265364,0.3958740234375,0.49560546875,-0.7847900390625,-12.6953125,-5.79833984375,-5.67626953125,6
2021-06-28 11:37:56.327194,0.3795166015625,0.4345703125,-0.7989501953125,8.4228515625,-8.23974609375,-6.34765625,6
2021-06-28 11:37:56.389227,0.39111328125,0.4205322265625,-0.79052734375,5.2490234375,-8.056640625,-5.79833984375,6
2021-06-28 11:37:56.452070,0.356201171875,0.423583984375,-0.7872314453125,7.14111328125,-10.1318359375,-6.16455078125,6
2021-06-28 11:37:56.513820,0.33935546875,0.408447265625,-0.8131103515625,7.568359375,-9.8876953125,-5.2490234375,6
2021-06-28 11:37:56.575622,0.3406982421875,0.4178466796875,-0.827392578125,6.103515625,-9.58251953125,-5.859375,6
2021-06-28 11:37:56.638118,0.3170166015625,0.3878173828125,-0.8199462890625,9.21630859375,-8.36181640625,-5.7373046875,6
2021-06-28 11:37:56.700128,0.3067626953125,0.39501953125,-0.80224609375,-3.72314453125,-4.82177734375,-2.86865234375,6
2021-06-28 11:37:56.761653,0.3199462890625,0.4378662109375,-0.8040771484375,-3.60107421875,-3.41796875,-2.99072265625,6
2021-06-28 11:37:56.823555,0.34716796875,0.4124755859375,-0.796142578125,4.33349609375,-1.52587890625,-3.84521484375,6
2021-06-28 11:37:56.885384,0.3590087890625,0.407958984375,-0.775634765625,1.40380859375,1.708984375,-3.90625,6
2021-06-28 11:37:56.947017,0.410888671875,0.4139404296875,-0.7821044921875,-5.0048828125,0.8544921875,-1.52587890625,7
2021-06-28 11:37:57.008912,0.360595703125,0.41796875,-0.8153076171875,-3.173828125,0.48828125,-1.40380859375,7
2021-06-28 11:37:57.071035,0.3338623046875,0.40966796875,-0.8084716796875,0.67138671875,4.57763671875,-1.220703125,6
2021-06-28 11:37:57.132412,0.3145751953125,0.396484375,-0.798828125,0.0,5.4931640625,-1.220703125,6
2021-06-28 11:37:57.195213,0.357666015625,0.40966796875,-0.8253173828125,-6.4697265625,6.34765625,1.28173828125,6
2021-06-28 11:37:57.257722,0.393798828125,0.4293212890625,-0.818359375,-1.64794921875,0.244140625,2.44140625,6
2021-06-28 11:37:57.319794,0.43701171875,0.42041015625,-0.7911376953125,-6.2255859375,-6.4697265625,4.21142578125,6
2021-06-28 11:37:57.382201,0.4718017578125,0.4588623046875,-0.7589111328125,-13.12255859375,-14.7705078125,5.37109375,6
2021-06-28 11:37:57.445576,0.458740234375,0.4642333984375,-0.73388671875,-17.88330078125,-18.1884765625,6.53076171875,6
2021-06-28 11:37:57.507817,0.377197265625,0.5401611328125,-0.734619140625,-20.01953125,-10.07080078125,-1.708984375,5
2021-06-28 11:37:57.570483,0.3790283203125,0.5399169921875,-0.716796875,-20.20263671875,1.64794921875,-10.55908203125,4
2021-06-28 11:37:57.634478,0.468994140625,0.5372314453125,-0.8804931640625,-29.35791015625,-4.0283203125,-15.2587890625,4
2021-06-28 11:37:57.697485,0.2666015625,0.5889892578125,-0.9090576171875,-21.54541015625,-10.498046875,-20.56884765625,4
2021-06-28 11:37:57.760460,0.2843017578125,0.566162109375,-0.923095703125,-9.94873046875,-8.1787109375,-33.8134765625,4
2021-06-28 11:37:57.823216,0.306884765625,0.5328369140625,-0.9111328125,-21.484375,-29.23583984375,-42.29736328125,4
2021-06-28 11:37:57.885490,0.2421875,0.6246337890625,-0.8232421875,-0.42724609375,-52.42919921875,-45.7763671875,4
2021-06-28 11:37:57.949454,0.1693115234375,0.533203125,-0.8499755859375,3.96728515625,-53.3447265625,-54.87060546875,4
2021-06-28 11:37:58.012591,0.0745849609375,0.4927978515625,-0.8004150390625,-16.357421875,-51.45263671875,-61.8896484375,4
2021-06-28 11:37:58.075280,0.161865234375,0.638671875,-0.798828125,-19.59228515625,-56.09130859375,-57.12890625,4
2021-06-28 11:37:58.137454,0.0098876953125,0.492919921875,-0.66552734375,20.1416015625,-53.3447265625,-65.24658203125,4
2021-06-28 11:37:58.199509,-0.107177734375,0.42236328125,-0.7198486328125,2.3193359375,-44.0673828125,-57.18994140625,4
2021-06-28 11:37:58.262501,0.056396484375,0.56689453125,-0.7359619140625,-21.42333984375,-38.2080078125,-32.77587890625,4
2021-06-28 11:37:58.324941,-0.1209716796875,0.5408935546875,-0.7056884765625,7.6904296875,-32.28759765625,-19.6533203125,4
2021-06-28 11:37:58.387595,-0.1619873046875,0.381103515625,-0.6749267578125,3.23486328125,-20.81298828125,-2.5634765625,4
2021-06-28 11:37:58.450076,-0.1949462890625,0.46142578125,-0.6431884765625,-27.77099609375,-11.3525390625,19.6533203125,4
2021-06-28 11:37:58.511913,-0.2569580078125,0.5360107421875,-0.64794921875,-2.0751953125,-0.48828125,43.27392578125,4
2021-06-28 11:37:58.573980,-0.2322998046875,0.331298828125,-0.6497802734375,24.96337890625,8.11767578125,69.9462890625,4
2021-06-28 11:37:58.636402,-0.0408935546875,0.2808837890625,-0.5853271484375,2.74658203125,18.6767578125,79.28466796875,4
2021-06-28 11:37:58.699338,-0.0201416015625,0.4320068359375,-0.6097412109375,-13.97705078125,4.33349609375,74.15771484375,4
2021-06-28 11:37:58.761321,0.0247802734375,0.4339599609375,-0.68505859375,9.70458984375,4.2724609375,73.91357421875,4
2021-06-28 11:37:58.822617,0.1297607421875,0.4515380859375,-0.7283935546875,13.7939453125,2.13623046875,78.61328125,4
2021-06-28 11:37:58.883466,0.2093505859375,0.5140380859375,-0.66943359375,16.357421875,-8.85009765625,62.5,5
2021-06-28 11:37:58.945130,0.20458984375,0.526611328125,-0.647705078125,12.39013671875,-11.962890625,49.1943359375,5
2021-06-28 11:37:59.007117,0.228271484375,0.5423583984375,-0.683837890625,9.94873046875,-10.80322265625,44.5556640625,5
2021-06-28 11:37:59.069290,0.2413330078125,0.5269775390625,-0.5572509765625,25.0244140625,-16.17431640625,37.7197265625,5
2021-06-28 11:37:59.131165,0.199951171875,0.4830322265625,-0.5777587890625,12.6953125,-15.869140625,30.33447265625,5
2021-06-28 11:37:59.193485,0.2376708984375,0.4930419921875,-0.6298828125,-1.15966796875,-13.671875,27.587890625,5
2021-06-28 11:37:59.255556,0.241455078125,0.5430908203125,-0.6395263671875,-4.150390625,-9.1552734375,24.23095703125,5
2021-06-28 11:37:59.318116,0.1778564453125,0.495849609375,-0.7471923828125,-3.5400390625,-6.34765625,13.73291015625,5
2021-06-28 11:37:59.379139,0.27685546875,0.5084228515625,-0.8160400390625,-13.671875,2.3193359375,17.822265625,6
2021-06-28 11:37:59.441669,0.308837890625,0.5482177734375,-0.8082275390625,-6.4697265625,-4.69970703125,16.41845703125,7
2021-06-28 11:37:59.504785,0.267822265625,0.5106201171875,-0.8480224609375,1.0986328125,-9.033203125,14.7705078125,6
2021-06-28 11:37:59.567193,0.298095703125,0.560302734375,-0.8592529296875,-9.521484375,0.244140625,21.97265625,6
2021-06-28 11:37:59.628474,0.3619384765625,0.6143798828125,-0.888427734375,-13.85498046875,-2.38037109375,35.15625,6
2021-06-28 11:37:59.691534,0.32763671875,0.60546875,-0.7921142578125,6.77490234375,-13.12255859375,28.4423828125,6
2021-06-28 11:37:59.753737,0.2685546875,0.5556640625,-0.9473876953125,-34.5458984375,-15.0146484375,22.39990234375,6
2021-06-28 11:37:59.815651,0.360595703125,0.7333984375,-0.880615234375,-13.7939453125,-10.498046875,20.20263671875,7
2021-06-28 11:37:59.877552,0.306396484375,0.626220703125,-0.87451171875,1.46484375,-17.02880859375,7.568359375,7
2021-06-28 11:37:59.939733,0.324462890625,0.614013671875,-0.99609375,-35.46142578125,-5.4931640625,3.7841796875,7
2021-06-28 11:38:00.002514,0.3760986328125,0.7110595703125,-0.916259765625,-13.427734375,-13.671875,3.72314453125,7
2021-06-28 11:38:00.064809,0.3201904296875,0.612060546875,-1.0186767578125,-2.0751953125,-17.88330078125,3.41796875,7
2021-06-28 11:38:00.130416,0.3897705078125,0.6575927734375,-0.9912109375,-15.13671875,-5.7373046875,5.126953125,7
2021-06-28 11:38:00.193047,0.3477783203125,0.6317138671875,-0.8311767578125,2.86865234375,-6.2255859375,11.04736328125,7
2021-06-28 11:38:00.254266,0.307373046875,0.509765625,-0.7763671875,7.6904296875,-10.80322265625,10.6201171875,7
2021-06-28 11:38:00.317130,0.3243408203125,0.5556640625,-0.7479248046875,-13.3056640625,-10.3759765625,6.65283203125,7
2021-06-28 11:38:00.379548,0.2530517578125,0.5538330078125,-0.7650146484375,-6.77490234375,-7.6904296875,2.13623046875,7
2021-06-28 11:38:00.441086,0.3175048828125,0.509033203125,-0.830810546875,-9.3994140625,-1.03759765625,6.8359375,7
2021-06-28 11:38:00.503358,0.3428955078125,0.603271484375,-0.811279296875,4.21142578125,-2.5634765625,7.2021484375,8
2021-06-28 11:38:00.565434,0.3057861328125,0.548095703125,-0.8992919921875,12.5732421875,-2.685546875,1.5869140625,8
2021-06-28 11:38:00.627564,0.403564453125,0.5924072265625,-0.9742431640625,4.57763671875,4.39453125,-3.5400390625,8
2021-06-28 11:38:00.689979,0.435791015625,0.6632080078125,-1.024169921875,17.02880859375,7.9345703125,-6.8359375,8
2021-06-28 11:38:00.752361,0.434326171875,0.665283203125,-1.0159912109375,35.0341796875,7.87353515625,-4.69970703125,8
2021-06-28 11:38:00.814690,0.50146484375,0.67919921875,-1.0311279296875,15.5029296875,6.9580078125,1.8310546875,8
2021-06-28 11:38:00.880678,0.504150390625,0.750732421875,-1.003173828125,14.34326171875,1.52587890625,-8.23974609375,7
2021-06-28 11:38:00.943402,0.4609375,0.739990234375,-0.9896240234375,26.85546875,3.7841796875,-11.29150390625,7
2021-06-28 11:38:01.006604,0.4366455078125,0.7039794921875,-0.9625244140625,0.42724609375,8.72802734375,-2.38037109375,7
2021-06-28 11:38:01.069892,0.4910888671875,0.6802978515625,-0.9910888671875,-9.09423828125,6.65283203125,-11.5966796875,6
2021-06-28 11:38:01.132010,0.4383544921875,0.7215576171875,-0.9466552734375,-3.84521484375,7.32421875,-14.22119140625,6
2021-06-28 11:38:01.194529,0.39111328125,0.638671875,-0.8922119140625,-0.06103515625,9.765625,-15.80810546875,6
2021-06-28 11:38:01.256426,0.421630859375,0.5596923828125,-0.9154052734375,-12.20703125,3.72314453125,-13.97705078125,5
2021-06-28 11:38:01.350850,0.410888671875,0.528564453125,-0.864990234375,-10.68115234375,0.18310546875,-12.939453125,5
2021-06-28 11:38:01.412125,0.3699951171875,0.5201416015625,-0.7945556640625,-5.859375,1.5869140625,-11.16943359375,5
2021-06-28 11:38:01.473621,0.31689453125,0.4857177734375,-0.7265625,3.0517578125,-0.3662109375,-21.3623046875,5
2021-06-28 11:38:01.536827,0.2581787109375,0.4385986328125,-0.66845703125,6.04248046875,-4.94384765625,-24.2919921875,5
2021-06-28 11:38:01.598219,0.2235107421875,0.4461669921875,-0.6142578125,-4.82177734375,-0.8544921875,-25.45166015625,4
2021-06-28 11:38:01.659887,0.2198486328125,0.428955078125,-0.5465087890625,0.48828125,-5.37109375,-33.26416015625,4
2021-06-28 11:38:01.721842,0.19189453125,0.3466796875,-0.4678955078125,8.97216796875,-14.22119140625,-39.12353515625,4
2021-06-28 11:38:01.783222,0.122314453125,0.3377685546875,-0.422607421875,1.708984375,-18.00537109375,-43.0908203125,4
2021-06-28 11:38:01.845440,0.1221923828125,0.3309326171875,-0.4068603515625,-21.8505859375,-21.05712890625,-55.17578125,4
2021-06-28 11:38:01.907866,0.096923828125,0.373046875,-0.505859375,-36.92626953125,-27.587890625,-69.15283203125,4
2021-06-28 11:38:01.970997,0.0325927734375,0.4285888671875,-0.56201171875,-34.85107421875,-21.42333984375,-75.98876953125,4
2021-06-28 11:38:02.032729,0.0418701171875,0.501953125,-0.6126708984375,-21.1181640625,-9.6435546875,-77.2705078125,4
2021-06-28 11:38:02.094617,0.0040283203125,0.5224609375,-0.6951904296875,-4.2724609375,-2.74658203125,-75.50048828125,4
2021-06-28 11:38:02.156504,-0.025146484375,0.5435791015625,-0.6348876953125,2.0751953125,0.18310546875,-62.98828125,4
2021-06-28 11:38:02.219521,-0.091064453125,0.561767578125,-0.68505859375,0.732421875,2.50244140625,-60.4248046875,4
2021-06-28 11:38:02.282371,-0.1121826171875,0.6739501953125,-0.758544921875,-11.962890625,3.41796875,-46.2646484375,4
2021-06-28 11:38:02.344148,-0.113525390625,0.6802978515625,-0.7235107421875,17.7001953125,-1.52587890625,-28.1982421875,4
2021-06-28 11:38:02.406229,-0.1019287109375,0.5924072265625,-0.6475830078125,31.43310546875,-5.18798828125,-20.08056640625,4
2021-06-28 11:38:02.468838,-0.1214599609375,0.57666015625,-0.7142333984375,-4.33349609375,-10.19287109375,-19.95849609375,4
2021-06-28 11:38:02.530880,-0.1134033203125,0.67431640625,-0.7490234375,-5.7373046875,-13.61083984375,-13.97705078125,4
2021-06-28 11:38:02.592450,-0.105224609375,0.6376953125,-0.71533203125,9.33837890625,-12.02392578125,-11.71875,4
2021-06-28 11:38:02.655905,-0.1065673828125,0.59130859375,-0.7197265625,5.06591796875,-8.056640625,-12.02392578125,4
2021-06-28 11:38:02.718850,-0.14501953125,0.644775390625,-0.7132568359375,3.41796875,-6.34765625,-6.591796875,4
2021-06-28 11:38:02.780702,-0.163330078125,0.634521484375,-0.666748046875,5.06591796875,-4.7607421875,2.01416015625,4
2021-06-28 11:38:02.843216,-0.1142578125,0.6187744140625,-0.691162109375,-6.7138671875,-4.21142578125,8.48388671875,4
2021-06-28 11:38:02.905624,-0.1055908203125,0.6727294921875,-0.70458984375,-2.197265625,-4.82177734375,13.427734375,4
2021-06-28 11:38:02.967866,-0.1221923828125,0.6124267578125,-0.67236328125,5.43212890625,3.72314453125,15.44189453125,4
2021-06-28 11:38:03.030671,-0.0699462890625,0.6131591796875,-0.691162109375,-2.50244140625,4.8828125,14.22119140625,4
2021-06-28 11:38:03.092414,-0.09765625,0.620361328125,-0.644775390625,4.69970703125,0.1220703125,7.6904296875,4
2021-06-28 11:38:03.154013,-0.1136474609375,0.58740234375,-0.695068359375,-1.220703125,5.18798828125,5.55419921875,4
2021-06-28 11:38:03.215506,-0.0643310546875,0.6546630859375,-0.71826171875,-2.3193359375,6.16455078125,7.75146484375,4
2021-06-28 11:38:03.277053,-0.0352783203125,0.6407470703125,-0.68017578125,11.71875,2.9296875,8.11767578125,5
2021-06-28 11:38:03.339134,-0.0338134765625,0.5938720703125,-0.73486328125,4.7607421875,2.5634765625,10.80322265625,5
2021-06-28 11:38:03.401038,-0.0133056640625,0.6578369140625,-0.7325439453125,-4.8828125,2.99072265625,16.90673828125,5
2021-06-28 11:38:03.462462,-0.0078125,0.654296875,-0.7333984375,5.9814453125,-1.03759765625,21.97265625,5
2021-06-28 11:38:03.524910,0.013671875,0.5948486328125,-0.7423095703125,4.57763671875,-1.953125,28.25927734375,5
