arrival_time,acc_x,acc_y,acc_z,rot_x,rot_y,rot_z,ir_dist
2021-06-17 14:48:08.466091,0.9876708984375,0.18798828125,0.1519775390625,1.40380859375,-0.8544921875,0.48828125,72
2021-06-17 14:48:08.511934,0.9827880859375,0.18994140625,0.1387939453125,1.3427734375,0.18310546875,1.220703125,73
2021-06-17 14:48:08.574311,0.983642578125,0.2001953125,0.142578125,1.46484375,0.42724609375,1.220703125,124
2021-06-17 14:48:08.636520,0.9854736328125,0.1937255859375,0.135498046875,2.25830078125,0.42724609375,1.77001953125,97
2021-06-17 14:48:08.699201,0.991943359375,0.205322265625,0.1185302734375,0.3662109375,0.06103515625,1.64794921875,126
2021-06-17 14:48:08.761611,0.9901123046875,0.1903076171875,0.1190185546875,0.79345703125,0.30517578125,1.5869140625,102
2021-06-17 14:48:08.824541,0.9930419921875,0.20361328125,0.1275634765625,-0.9765625,-0.42724609375,0.732421875,97
2021-06-17 14:48:08.887552,0.97900390625,0.18408203125,0.158447265625,0.6103515625,-2.01416015625,0.54931640625,67
2021-06-17 14:48:08.949687,0.983642578125,0.190673828125,0.1629638671875,-0.6103515625,-1.03759765625,0.3662109375,78
2021-06-17 14:48:09.012060,0.9910888671875,0.1959228515625,0.14111328125,1.3427734375,-1.708984375,0.0,75
2021-06-17 14:48:09.074508,0.9852294921875,0.18408203125,0.137451171875,2.62451171875,-2.44140625,0.1220703125,69
2021-06-17 14:48:09.137625,0.983642578125,0.1888427734375,0.128173828125,0.06103515625,-2.8076171875,0.244140625,77
2021-06-17 14:48:09.200695,0.983154296875,0.1904296875,0.1287841796875,0.30517578125,-3.7841796875,-0.67138671875,110
2021-06-17 14:48:09.263190,0.9886474609375,0.188232421875,0.1378173828125,-0.8544921875,-5.18798828125,-0.9765625,77
2021-06-17 14:48:09.326606,0.9822998046875,0.1907958984375,0.1517333984375,-0.8544921875,-5.92041015625,-1.5869140625,54
2021-06-17 14:48:09.388946,0.9879150390625,0.1873779296875,0.1431884765625,-1.3427734375,-6.53076171875,-1.708984375,79
2021-06-17 14:48:09.452063,0.98046875,0.1898193359375,0.15234375,-0.06103515625,-6.103515625,-1.52587890625,58
2021-06-17 14:48:09.514843,0.98681640625,0.195068359375,0.151123046875,-0.1220703125,-5.126953125,-1.15966796875,88
2021-06-17 14:48:09.571028,0.9837646484375,0.1895751953125,0.1492919921875,-0.732421875,-4.638671875,-0.9765625,79
2021-06-17 14:48:09.634024,0.9915771484375,0.1915283203125,0.13671875,-1.28173828125,-4.57763671875,-1.03759765625,110
2021-06-17 14:48:09.696910,0.99267578125,0.1820068359375,0.144287109375,-2.86865234375,-5.0048828125,-1.0986328125,78
2021-06-17 14:48:09.760406,1.0035400390625,0.200439453125,0.1385498046875,-4.150390625,-4.8828125,-1.46484375,91
2021-06-17 14:48:09.823667,0.9884033203125,0.1982421875,0.1461181640625,-3.60107421875,-5.43212890625,-1.220703125,56
2021-06-17 14:48:09.885873,0.972900390625,0.19775390625,0.16357421875,-1.89208984375,-5.0048828125,-1.52587890625,93
2021-06-17 14:48:09.948243,0.976318359375,0.1859130859375,0.14501953125,-3.2958984375,-4.2724609375,-1.8310546875,104
2021-06-17 14:48:10.009861,0.986572265625,0.191650390625,0.14794921875,-1.3427734375,-4.33349609375,-2.685546875,73
2021-06-17 14:48:10.073081,0.9844970703125,0.179931640625,0.160888671875,-1.40380859375,-3.2958984375,-2.74658203125,74
2021-06-17 14:48:10.135096,0.99462890625,0.1837158203125,0.1561279296875,-2.5634765625,-2.8076171875,-1.708984375,84
2021-06-17 14:48:10.198449,0.9886474609375,0.1822509765625,0.150146484375,-1.708984375,-3.7841796875,-1.5869140625,83
2021-06-17 14:48:10.260237,0.9796142578125,0.181640625,0.13720703125,-2.197265625,-3.84521484375,-1.46484375,99
2021-06-17 14:48:10.322291,0.973388671875,0.180419921875,0.1513671875,-2.38037109375,-4.08935546875,-0.91552734375,71
2021-06-17 14:48:10.384942,0.9822998046875,0.18701171875,0.148193359375,-1.953125,-3.173828125,-0.42724609375,68
2021-06-17 14:48:10.452219,0.9783935546875,0.1856689453125,0.1514892578125,-1.28173828125,-3.60107421875,-1.03759765625,79
2021-06-17 14:48:10.514799,0.977783203125,0.179443359375,0.1595458984375,-1.953125,-2.9296875,0.06103515625,73
2021-06-17 14:48:10.577088,0.9869384765625,0.1842041015625,0.14208984375,-1.8310546875,-2.13623046875,0.91552734375,85
2021-06-17 14:48:10.639212,0.9837646484375,0.17919921875,0.1396484375,-1.46484375,-2.685546875,1.03759765625,110
2021-06-17 14:48:10.700965,0.9864501953125,0.1785888671875,0.1546630859375,-1.64794921875,-3.0517578125,1.28173828125,59
2021-06-17 14:48:10.763385,0.9842529296875,0.1806640625,0.1387939453125,-2.38037109375,-3.5400390625,1.40380859375,66
2021-06-17 14:48:10.857275,0.980224609375,0.1832275390625,0.1463623046875,-3.84521484375,-4.39453125,1.03759765625,58
2021-06-17 14:48:10.919556,0.97607421875,0.18212890625,0.1441650390625,-1.89208984375,-4.21142578125,1.28173828125,85
2021-06-17 14:48:10.981605,0.987548828125,0.1927490234375,0.136962890625,-3.11279296875,-4.33349609375,0.732421875,54
2021-06-17 14:48:11.043934,0.9844970703125,0.1749267578125,0.1536865234375,-2.38037109375,-4.69970703125,0.732421875,64
2021-06-17 14:48:11.106997,0.9954833984375,0.17919921875,0.140380859375,-2.8076171875,-4.57763671875,1.28173828125,68
2021-06-17 14:48:11.169681,1.0067138671875,0.1910400390625,0.121826171875,-2.74658203125,-7.01904296875,0.3662109375,63
2021-06-17 14:48:11.232472,1.0250244140625,0.2244873046875,0.1241455078125,-0.91552734375,-12.6953125,-3.47900390625,61
2021-06-17 14:48:11.295047,1.0400390625,0.2496337890625,0.07958984375,6.53076171875,-22.15576171875,-9.21630859375,56
2021-06-17 14:48:11.357333,1.0643310546875,0.330810546875,0.0128173828125,15.869140625,-34.0576171875,-19.10400390625,71
2021-06-17 14:48:11.419525,1.0670166015625,0.390380859375,-0.033935546875,33.203125,-53.955078125,-31.982421875,77
2021-06-17 14:48:11.514131,1.1513671875,0.472412109375,-0.27197265625,61.46240234375,-97.83935546875,-67.32177734375,104
2021-06-17 14:48:11.576011,1.173095703125,0.547607421875,-0.4842529296875,54.13818359375,-129.2724609375,-92.59033203125,82
2021-06-17 14:48:11.637936,1.148193359375,0.5916748046875,-0.647705078125,56.5185546875,-169.25048828125,-110.7177734375,106
2021-06-17 14:48:11.701162,1.0855712890625,0.605712890625,-0.668701171875,43.45703125,-194.091796875,-119.44580078125,102
2021-06-17 14:48:11.764654,1.073974609375,0.6246337890625,-0.7564697265625,36.0107421875,-226.86767578125,-118.1640625,124
2021-06-17 14:48:11.826971,0.952392578125,0.6915283203125,-0.8433837890625,25.7568359375,-249.20654296875,-120.30029296875,198
2021-06-17 14:48:11.889317,0.8587646484375,0.5692138671875,-0.6937255859375,44.25048828125,-266.4794921875,-114.68505859375,99
2021-06-17 14:48:11.951491,0.7901611328125,0.5078125,-0.6724853515625,51.6357421875,-263.85498046875,-123.47412109375,24
2021-06-17 14:48:12.045444,0.451171875,0.3409423828125,-0.5087890625,55.0537109375,-254.0283203125,-110.7177734375,9
2021-06-17 14:48:12.108208,0.267333984375,0.32861328125,-0.4805908203125,18.1884765625,-221.435546875,-97.16796875,7
2021-06-17 14:48:12.171764,0.0220947265625,0.285400390625,-0.3350830078125,-12.51220703125,-188.65966796875,-87.0361328125,18
2021-06-17 14:48:12.234163,-0.2054443359375,0.2908935546875,-0.4364013671875,-40.1611328125,-141.66259765625,-66.7724609375,6
2021-06-17 14:48:12.296504,-0.3819580078125,0.1905517578125,-0.3359375,-36.31591796875,-107.0556640625,-52.79541015625,5
2021-06-17 14:48:12.359628,-0.5577392578125,0.3135986328125,-0.4207763671875,-9.8876953125,-90.14892578125,-31.494140625,6
2021-06-17 14:48:12.422972,-0.6822509765625,0.395263671875,-0.255126953125,0.6103515625,-56.15234375,-22.88818359375,6
2021-06-17 14:48:12.485394,-0.6883544921875,0.421630859375,-0.2747802734375,-14.16015625,-12.20703125,-7.38525390625,6
2021-06-17 14:48:12.548776,-0.6307373046875,0.356201171875,-0.4053955078125,-19.22607421875,22.5830078125,11.1083984375,4
2021-06-17 14:48:12.610729,-0.544677734375,0.3807373046875,-0.4151611328125,-23.92578125,41.68701171875,20.44677734375,4
2021-06-17 14:48:12.673410,-0.5714111328125,0.302978515625,-0.412353515625,-12.51220703125,64.14794921875,41.8701171875,4
2021-06-17 14:48:12.735426,-0.4454345703125,0.4107666015625,-0.42236328125,-11.3525390625,96.435546875,65.85693359375,4
2021-06-17 14:48:12.798069,-0.3037109375,0.4930419921875,-0.260498046875,-5.92041015625,120.17822265625,79.2236328125,5
2021-06-17 14:48:12.861758,-0.32861328125,0.4111328125,-0.3543701171875,-18.61572265625,152.16064453125,101.01318359375,6
2021-06-17 14:48:12.923886,-0.0355224609375,0.6029052734375,-0.563232421875,-35.64453125,162.65869140625,106.14013671875,9
2021-06-17 14:48:12.986511,-0.146484375,0.4737548828125,-0.4423828125,-24.10888671875,165.10009765625,121.09375,13
2021-06-17 14:48:13.048955,0.348388671875,0.6290283203125,-0.625732421875,-41.8701171875,155.029296875,121.76513671875,46
2021-06-17 14:48:13.111952,0.38134765625,0.7137451171875,-0.6666259765625,-40.8935546875,144.287109375,107.5439453125,218
2021-06-17 14:48:13.175216,0.7303466796875,0.7352294921875,-0.735595703125,-25.7568359375,127.13623046875,100.64697265625,460
2021-06-17 14:48:13.237563,0.62646484375,0.811767578125,-0.81591796875,-35.94970703125,119.62890625,98.7548828125,855
2021-06-17 14:48:13.299853,0.818603515625,0.77734375,-0.578857421875,-31.982421875,114.2578125,111.81640625,855
2021-06-17 14:48:13.362639,0.8448486328125,0.724365234375,-0.4285888671875,-21.30126953125,104.91943359375,104.3701171875,953
2021-06-17 14:48:13.425342,0.7047119140625,0.5308837890625,-0.2967529296875,-11.962890625,95.76416015625,93.994140625,525
2021-06-17 14:48:13.488792,0.8109130859375,0.57470703125,-0.2232666015625,-21.6064453125,99.42626953125,77.5146484375,241
2021-06-17 14:48:13.550467,1.0413818359375,0.5172119140625,-0.309326171875,-18.12744140625,82.51953125,70.00732421875,181
2021-06-17 14:48:13.612665,0.9918212890625,0.4473876953125,-0.1478271484375,-2.197265625,83.92333984375,67.2607421875,97
2021-06-17 14:48:13.674916,1.1455078125,0.4273681640625,-0.275146484375,-9.58251953125,81.0546875,66.162109375,90
2021-06-17 14:48:13.736458,1.010009765625,0.4237060546875,-0.0640869140625,-6.77490234375,73.3642578125,56.2744140625,84
2021-06-17 14:48:13.798804,0.9468994140625,0.3297119140625,-0.0345458984375,-5.7373046875,67.626953125,51.8798828125,72
2021-06-17 14:48:13.861327,0.990234375,0.3397216796875,-0.037353515625,-6.28662109375,64.14794921875,45.59326171875,72
2021-06-17 14:48:13.924162,1.0255126953125,0.2900390625,0.0216064453125,2.5634765625,57.06787109375,40.4052734375,81
2021-06-17 14:48:13.986511,1.041748046875,0.2442626953125,0.1070556640625,-7.080078125,52.18505859375,37.78076171875,72
2021-06-17 14:48:14.048843,1.075439453125,0.216064453125,0.0986328125,8.6669921875,45.47119140625,33.69140625,97
2021-06-17 14:48:14.111158,1.0601806640625,0.236328125,0.095458984375,12.451171875,34.48486328125,25.45166015625,68
2021-06-17 14:48:14.174212,0.9810791015625,0.2020263671875,0.1435546875,14.22119140625,23.193359375,20.32470703125,37
2021-06-17 14:48:14.236092,1.001220703125,0.23095703125,0.089111328125,15.56396484375,13.18359375,12.451171875,41
2021-06-17 14:48:14.299792,0.9884033203125,0.2261962890625,0.13134765625,16.845703125,6.8359375,7.568359375,33
2021-06-17 14:48:14.362725,0.9937744140625,0.201171875,0.1256103515625,22.03369140625,0.0,3.47900390625,30
2021-06-17 14:48:14.425027,0.98779296875,0.1710205078125,0.109375,19.34814453125,-6.28662109375,1.15966796875,30
2021-06-17 14:48:14.519349,0.9918212890625,0.186767578125,0.092529296875,12.14599609375,-14.7705078125,-0.732421875,43
2021-06-17 14:48:14.582655,1.025634765625,0.1988525390625,0.052490234375,10.25390625,-23.5595703125,-5.7373046875,52
2021-06-17 14:48:14.645433,1.049072265625,0.178466796875,0.032470703125,5.7373046875,-34.85107421875,-9.33837890625,68
2021-06-17 14:48:14.708385,1.1036376953125,0.24658203125,-0.07080078125,3.0517578125,-50.048828125,-14.34326171875,87
2021-06-17 14:48:14.771280,1.095703125,0.2705078125,-0.143798828125,-0.244140625,-79.1015625,-28.99169921875,68
2021-06-17 14:48:14.832866,1.0885009765625,0.26318359375,-0.278564453125,12.63427734375,-102.35595703125,-37.841796875,75
2021-06-17 14:48:14.896965,1.1431884765625,0.3924560546875,-0.3282470703125,10.31494140625,-120.4833984375,-51.7578125,97
2021-06-17 14:48:14.959165,1.1868896484375,0.483154296875,-0.447021484375,14.46533203125,-149.59716796875,-63.29345703125,108
2021-06-17 14:48:15.021066,1.1451416015625,0.515625,-0.5025634765625,3.96728515625,-176.7578125,-78.4912109375,94
2021-06-17 14:48:15.083397,1.1475830078125,0.615478515625,-0.6466064453125,6.40869140625,-195.3125,-88.19580078125,121
2021-06-17 14:48:15.145952,1.2630615234375,0.6231689453125,-0.82177734375,19.775390625,-231.50634765625,-100.9521484375,119
2021-06-17 14:48:15.209213,1.229736328125,0.5465087890625,-0.8221435546875,29.60205078125,-276.123046875,-107.36083984375,281
2021-06-17 14:48:15.271355,1.0596923828125,0.4581298828125,-0.75537109375,41.44287109375,-298.4619140625,-106.201171875,90
2021-06-17 14:48:15.333785,0.6904296875,0.505126953125,-0.6812744140625,38.02490234375,-299.8046875,-105.40771484375,172
2021-06-17 14:48:15.396851,0.2708740234375,0.3658447265625,-0.4833984375,19.59228515625,-280.029296875,-96.98486328125,11
2021-06-17 14:48:15.449550,0.09521484375,0.296875,-0.41796875,-28.1982421875,-234.0087890625,-84.47265625,20
2021-06-17 14:48:15.512508,0.1290283203125,0.29443359375,-0.4200439453125,-71.1669921875,-194.15283203125,-82.45849609375,10
2021-06-17 14:48:15.575198,-0.054443359375,0.281494140625,-0.4124755859375,-44.189453125,-146.05712890625,-69.82421875,5
2021-06-17 14:48:15.637901,-0.26123046875,0.261962890625,-0.4229736328125,-20.44677734375,-102.6611328125,-47.2412109375,4
2021-06-17 14:48:15.701235,-0.541015625,0.29833984375,-0.2906494140625,2.0751953125,-57.31201171875,-22.64404296875,4
2021-06-17 14:48:15.764024,-0.6549072265625,0.4334716796875,-0.26318359375,0.91552734375,-25.146484375,-12.0849609375,4
2021-06-17 14:48:15.826373,-0.66357421875,0.431640625,-0.3653564453125,-0.1220703125,6.16455078125,-3.2958984375,4
2021-06-17 14:48:15.888941,-0.5955810546875,0.46142578125,-0.50439453125,-5.55419921875,24.169921875,0.1220703125,4
2021-06-17 14:48:15.951083,-0.5723876953125,0.4840087890625,-0.4736328125,-17.578125,34.97314453125,1.5869140625,4
2021-06-17 14:48:16.013494,-0.5318603515625,0.40185546875,-0.3809814453125,-17.2119140625,55.2978515625,11.29150390625,4
2021-06-17 14:48:16.076235,-0.364501953125,0.3834228515625,-0.341796875,-27.28271484375,93.93310546875,33.38623046875,4
2021-06-17 14:48:16.138681,-0.267333984375,0.373779296875,-0.335205078125,-25.93994140625,126.46484375,46.7529296875,4
2021-06-17 14:48:16.201722,-0.2774658203125,0.2427978515625,-0.2801513671875,-17.15087890625,165.71044921875,70.37353515625,5
2021-06-17 14:48:16.263805,-0.0684814453125,0.3150634765625,-0.3896484375,-37.41455078125,201.11083984375,94.29931640625,6
2021-06-17 14:48:16.325542,0.0657958984375,0.40673828125,-0.4407958984375,-20.56884765625,227.60009765625,145.751953125,36
2021-06-17 14:48:16.418948,0.3173828125,0.2379150390625,-0.1097412109375,-22.03369140625,253.60107421875,179.38232421875,100
