arrival_time,acc_x,acc_y,acc_z,rot_x,rot_y,rot_z,ir_dist
2021-06-17 15:01:19.953000,-0.1220703125,0.8076171875,-0.529052734375,-0.6103515625,-3.7841796875,0.91552734375,8
2021-06-17 15:01:20.016108,-0.12353515625,0.806396484375,-0.519287109375,-0.42724609375,-4.39453125,0.732421875,8
2021-06-17 15:01:20.078930,-0.1246337890625,0.816162109375,-0.526123046875,-0.30517578125,-3.90625,0.42724609375,8
2021-06-17 15:01:20.141341,-0.1248779296875,0.810302734375,-0.53125,-0.1220703125,-4.08935546875,-0.30517578125,8
2021-06-17 15:01:20.203440,-0.1253662109375,0.8106689453125,-0.528076171875,0.0,-4.21142578125,-0.9765625,8
2021-06-17 15:01:20.265038,-0.119384765625,0.8092041015625,-0.531494140625,0.9765625,-4.5166015625,-0.91552734375,8
2021-06-17 15:01:20.327372,-0.1138916015625,0.8134765625,-0.530029296875,0.8544921875,-5.0048828125,-1.15966796875,8
2021-06-17 15:01:20.389148,-0.11962890625,0.8123779296875,-0.52392578125,1.3427734375,-4.638671875,-1.03759765625,8
2021-06-17 15:01:20.451081,-0.12060546875,0.81201171875,-0.5302734375,1.40380859375,-4.5166015625,-1.28173828125,8
2021-06-17 15:01:20.513136,-0.1220703125,0.814208984375,-0.5306396484375,0.732421875,-5.126953125,-1.708984375,8
2021-06-17 15:01:20.575605,-0.126220703125,0.8101806640625,-0.5238037109375,1.03759765625,-5.0048828125,-1.64794921875,8
2021-06-17 15:01:20.637813,-0.12353515625,0.8143310546875,-0.5318603515625,1.0986328125,-5.06591796875,-2.01416015625,8
2021-06-17 15:01:20.699400,-0.1209716796875,0.8118896484375,-0.533447265625,0.3662109375,-5.2490234375,-2.197265625,8
2021-06-17 15:01:20.761336,-0.128173828125,0.8076171875,-0.5230712890625,-0.42724609375,-5.0048828125,-2.0751953125,8
2021-06-17 15:01:20.824736,-0.1239013671875,0.8065185546875,-0.5296630859375,-0.1220703125,-5.06591796875,-1.708984375,8
2021-06-17 15:01:20.887339,-0.1298828125,0.8095703125,-0.52734375,-0.732421875,-4.8828125,-1.953125,8
2021-06-17 15:01:20.949257,-0.13134765625,0.8101806640625,-0.526611328125,0.18310546875,-4.8828125,-1.89208984375,8
2021-06-17 15:01:21.012363,-0.1353759765625,0.807373046875,-0.5296630859375,-0.18310546875,-4.94384765625,-2.25830078125,8
2021-06-17 15:01:21.075077,-0.134765625,0.8056640625,-0.5357666015625,-0.30517578125,-4.94384765625,-2.44140625,8
2021-06-17 15:01:21.136781,-0.13623046875,0.8056640625,-0.52734375,0.732421875,-5.2490234375,-2.38037109375,8
2021-06-17 15:01:21.199181,-0.13623046875,0.8094482421875,-0.5262451171875,1.46484375,-4.8828125,-2.25830078125,8
2021-06-17 15:01:21.261480,-0.1336669921875,0.8076171875,-0.5301513671875,1.15966796875,-4.57763671875,-1.89208984375,8
2021-06-17 15:01:21.323551,-0.140380859375,0.8060302734375,-0.5299072265625,0.8544921875,-4.69970703125,-1.89208984375,8
2021-06-17 15:01:21.386191,-0.1378173828125,0.8092041015625,-0.5284423828125,0.54931640625,-4.7607421875,-1.52587890625,8
2021-06-17 15:01:21.448569,-0.143310546875,0.8084716796875,-0.523681640625,0.8544921875,-4.638671875,-1.220703125,8
2021-06-17 15:01:21.511140,-0.1402587890625,0.8079833984375,-0.5325927734375,0.54931640625,-4.39453125,-1.03759765625,8
2021-06-17 15:01:21.574060,-0.135986328125,0.8057861328125,-0.5274658203125,0.42724609375,-4.33349609375,-0.42724609375,8
2021-06-17 15:01:21.635980,-0.1392822265625,0.8045654296875,-0.5325927734375,-0.3662109375,-4.08935546875,0.0,8
2021-06-17 15:01:21.698419,-0.1419677734375,0.8046875,-0.5234375,0.30517578125,-3.84521484375,0.42724609375,8
2021-06-17 15:01:21.761295,-0.140869140625,0.8072509765625,-0.527099609375,0.3662109375,-3.41796875,0.18310546875,8
2021-06-17 15:01:21.824155,-0.1383056640625,0.809814453125,-0.5330810546875,0.244140625,-3.60107421875,0.1220703125,8
2021-06-17 15:01:21.886582,-0.1463623046875,0.802490234375,-0.533203125,-0.42724609375,-3.96728515625,-0.244140625,8
2021-06-17 15:01:21.948257,-0.1392822265625,0.8076171875,-0.5303955078125,1.03759765625,-4.57763671875,-0.06103515625,8
2021-06-17 15:01:22.010150,-0.137939453125,0.8057861328125,-0.5267333984375,1.46484375,-4.2724609375,0.06103515625,8
2021-06-17 15:01:22.071974,-0.142333984375,0.8099365234375,-0.52978515625,1.03759765625,-3.84521484375,0.244140625,8
2021-06-17 15:01:22.134412,-0.148681640625,0.8203125,-0.5447998046875,0.0,-2.8076171875,0.6103515625,8
2021-06-17 15:01:22.226956,-0.142822265625,0.82421875,-0.5537109375,-1.40380859375,-0.244140625,0.3662109375,8
2021-06-17 15:01:22.320157,-0.1065673828125,0.7928466796875,-0.5150146484375,0.79345703125,4.638671875,-0.06103515625,8
2021-06-17 15:01:22.382126,-0.086181640625,0.8128662109375,-0.5047607421875,6.40869140625,6.4697265625,2.38037109375,7
2021-06-17 15:01:22.444190,-0.0914306640625,0.8402099609375,-0.5230712890625,8.23974609375,7.568359375,3.662109375,7
2021-06-17 15:01:22.506546,-0.0848388671875,0.860107421875,-0.517333984375,4.94384765625,8.60595703125,4.57763671875,7
2021-06-17 15:01:22.568775,-0.0972900390625,0.8607177734375,-0.5218505859375,-6.77490234375,9.1552734375,4.57763671875,7
2021-06-17 15:01:22.631675,-0.099609375,0.8548583984375,-0.522705078125,-17.63916015625,7.87353515625,4.94384765625,7
2021-06-17 15:01:22.693671,-0.1121826171875,0.80419921875,-0.5023193359375,-25.87890625,4.8828125,4.8828125,7
2021-06-17 15:01:22.787581,-0.12646484375,0.7777099609375,-0.5037841796875,-24.47509765625,1.0986328125,4.82177734375,7
2021-06-17 15:01:22.849336,-0.12158203125,0.778076171875,-0.509521484375,-13.427734375,-2.50244140625,4.69970703125,7
2021-06-17 15:01:22.911612,-0.1019287109375,0.7889404296875,-0.528076171875,-6.9580078125,-3.84521484375,3.41796875,7
2021-06-17 15:01:22.974409,-0.095703125,0.788330078125,-0.526123046875,-0.30517578125,-5.43212890625,2.5634765625,7
2021-06-17 15:01:23.036649,-0.07763671875,0.802978515625,-0.5155029296875,6.8359375,-6.28662109375,4.08935546875,7
2021-06-17 15:01:23.098384,-0.072998046875,0.8170166015625,-0.4974365234375,7.8125,-6.7138671875,4.21142578125,7
2021-06-17 15:01:23.160812,-0.0677490234375,0.8380126953125,-0.489501953125,6.53076171875,-6.16455078125,3.23486328125,7
2021-06-17 15:01:23.222932,-0.06103515625,0.8505859375,-0.4940185546875,3.35693359375,-4.21142578125,1.89208984375,7
2021-06-17 15:01:23.284853,-0.0567626953125,0.8475341796875,-0.4913330078125,-1.52587890625,-1.77001953125,0.91552734375,7
2021-06-17 15:01:23.377543,-0.031005859375,0.8455810546875,-0.4808349609375,2.13623046875,5.615234375,2.50244140625,7
2021-06-17 15:01:23.439197,-0.009033203125,0.864501953125,-0.4625244140625,6.4697265625,8.72802734375,3.47900390625,6
2021-06-17 15:01:23.501010,0.042724609375,0.853515625,-0.41845703125,2.44140625,7.87353515625,1.5869140625,6
2021-06-17 15:01:23.562782,0.0806884765625,0.8341064453125,-0.3489990234375,3.41796875,1.15966796875,-1.0986328125,7
2021-06-17 15:01:23.624714,0.09765625,0.8875732421875,-0.330810546875,10.92529296875,-4.21142578125,-1.03759765625,11
2021-06-17 15:01:23.686829,0.075439453125,0.957275390625,-0.335693359375,14.46533203125,-3.23486328125,2.5634765625,12
2021-06-17 15:01:23.749791,0.0679931640625,0.94580078125,-0.36181640625,2.25830078125,3.0517578125,2.685546875,12
2021-06-17 15:01:23.811682,0.0289306640625,0.931640625,-0.378173828125,-12.5732421875,2.99072265625,-0.3662109375,12
2021-06-17 15:01:23.874004,0.0191650390625,0.90185546875,-0.3699951171875,-7.6904296875,-4.82177734375,-0.8544921875,12
2021-06-17 15:01:23.936181,0.010498046875,0.8548583984375,-0.3092041015625,-3.23486328125,-16.357421875,-1.40380859375,12
2021-06-17 15:01:23.999024,0.0635986328125,0.8433837890625,-0.26318359375,-6.4697265625,-22.94921875,-5.4931640625,12
2021-06-17 15:01:24.061627,0.0982666015625,0.8485107421875,-0.2630615234375,-5.615234375,-22.94921875,-4.94384765625,11
2021-06-17 15:01:24.124037,0.1510009765625,0.8642578125,-0.2581787109375,-11.90185546875,-17.4560546875,-4.8828125,10
2021-06-17 15:01:24.186808,0.1844482421875,0.8790283203125,-0.2496337890625,-1.40380859375,-13.00048828125,-4.7607421875,9
2021-06-17 15:01:24.249154,0.192138671875,0.8544921875,-0.2064208984375,1.89208984375,-5.615234375,-4.5166015625,9
2021-06-17 15:01:24.311576,0.197265625,0.8455810546875,-0.2091064453125,3.0517578125,-1.15966796875,-4.0283203125,9
2021-06-17 15:01:24.373809,0.1268310546875,0.78564453125,-0.17919921875,5.37109375,-1.5869140625,-2.13623046875,10
2021-06-17 15:01:24.435524,-0.0693359375,0.8831787109375,-0.3768310546875,17.27294921875,2.38037109375,8.30078125,11
2021-06-17 15:01:24.497562,-0.1968994140625,1.0916748046875,-0.865234375,-15.07568359375,30.1513671875,26.3671875,10
2021-06-17 15:01:24.559083,0.0220947265625,0.8583984375,-0.7080078125,11.77978515625,21.240234375,9.27734375,9
2021-06-17 15:01:24.621208,-0.3721923828125,0.5548095703125,-0.7310791015625,12.14599609375,13.73291015625,-10.92529296875,7
2021-06-17 15:01:24.683041,-0.41455078125,0.585693359375,-0.921142578125,18.9208984375,4.150390625,8.056640625,5
2021-06-17 15:01:24.745093,-0.2349853515625,0.6552734375,-0.78076171875,7.62939453125,-15.93017578125,-21.78955078125,5
2021-06-17 15:01:24.869046,-0.2183837890625,0.6585693359375,-0.696533203125,2.01416015625,-22.76611328125,-20.99609375,6
2021-06-17 15:01:24.930763,-0.1749267578125,0.7059326171875,-0.6888427734375,12.39013671875,-27.4658203125,-17.4560546875,7
2021-06-17 15:01:24.992284,-0.1556396484375,0.73779296875,-0.65966796875,7.9345703125,-23.13232421875,-22.4609375,8
2021-06-17 15:01:25.054136,-0.1988525390625,0.7877197265625,-0.6763916015625,9.27734375,-14.2822265625,-26.2451171875,8
2021-06-17 15:01:25.116116,-0.1602783203125,0.833740234375,-0.674072265625,10.55908203125,-9.46044921875,-21.42333984375,9
2021-06-17 15:01:25.178621,-0.1240234375,0.8511962890625,-0.6490478515625,10.31494140625,-4.638671875,-20.56884765625,9
2021-06-17 15:01:25.240600,-0.1544189453125,0.8109130859375,-0.6092529296875,12.939453125,-0.67138671875,-18.37158203125,7
2021-06-17 15:01:25.334062,-0.162841796875,0.79296875,-0.6505126953125,7.38525390625,4.8828125,-0.244140625,7
2021-06-17 15:01:25.396377,-0.178466796875,0.7755126953125,-0.7291259765625,9.21630859375,3.72314453125,5.615234375,7
2021-06-17 15:01:25.458672,-0.176513671875,0.7744140625,-0.7637939453125,11.23046875,-0.6103515625,12.0849609375,7
2021-06-17 15:01:25.520869,-0.1915283203125,0.808837890625,-0.791015625,7.50732421875,-2.3193359375,13.5498046875,7
2021-06-17 15:01:25.583513,-0.2093505859375,0.8028564453125,-0.7958984375,1.40380859375,-5.0048828125,9.21630859375,7
2021-06-17 15:01:25.645337,-0.2391357421875,0.792236328125,-0.81982421875,-1.8310546875,-6.2255859375,5.4931640625,7
2021-06-17 15:01:25.707509,-0.233154296875,0.7843017578125,-0.814697265625,-2.50244140625,-5.2490234375,4.0283203125,6
2021-06-17 15:01:25.770262,-0.21484375,0.80322265625,-0.82421875,-7.4462890625,-6.2255859375,-0.6103515625,6
2021-06-17 15:01:25.833248,-0.214599609375,0.7823486328125,-0.7967529296875,-16.29638671875,-3.11279296875,-2.99072265625,6
2021-06-17 15:01:25.926429,-0.243408203125,0.6959228515625,-0.797607421875,-16.54052734375,-2.9296875,-4.638671875,6
2021-06-17 15:01:25.989384,-0.26416015625,0.606689453125,-0.7635498046875,-13.61083984375,-3.90625,-5.859375,6
2021-06-17 15:01:26.051753,-0.273193359375,0.5482177734375,-0.7545166015625,-5.9814453125,-2.74658203125,-7.080078125,6
2021-06-17 15:01:26.113738,-0.2647705078125,0.5010986328125,-0.7274169921875,-2.25830078125,-2.3193359375,-9.1552734375,6
2021-06-17 15:01:26.206880,-0.283203125,0.5242919921875,-0.7005615234375,-11.962890625,7.9345703125,-12.39013671875,6
2021-06-17 15:01:26.268645,-0.25244140625,0.5899658203125,-0.683837890625,-4.5166015625,16.54052734375,-17.51708984375,7
2021-06-17 15:01:26.330864,-0.16748046875,0.6376953125,-0.6004638671875,-9.521484375,19.1650390625,-26.79443359375,7
2021-06-17 15:01:26.393350,-0.125,0.686279296875,-0.2818603515625,12.6953125,9.09423828125,-34.24072265625,8
2021-06-17 15:01:26.455468,-0.0745849609375,0.9085693359375,-0.1793212890625,20.3857421875,11.41357421875,-23.13232421875,8
2021-06-17 15:01:26.517091,-0.1002197265625,1.040771484375,-0.21875,3.5400390625,-0.18310546875,-5.43212890625,8
2021-06-17 15:01:26.579631,-0.079833984375,1.146728515625,-0.4271240234375,-10.19287109375,-4.94384765625,-1.64794921875,8
2021-06-17 15:01:26.641357,0.1141357421875,1.1336669921875,-0.5211181640625,-9.21630859375,1.77001953125,-0.732421875,7
2021-06-17 15:01:26.734932,0.1058349609375,1.0843505859375,-0.3369140625,27.28271484375,5.92041015625,18.310546875,6
2021-06-17 15:01:26.797437,-0.0377197265625,0.97802734375,-0.380126953125,4.21142578125,12.63427734375,10.1318359375,6
2021-06-17 15:01:26.859382,-0.0924072265625,0.803466796875,-0.3876953125,-9.8876953125,11.77978515625,2.685546875,7
2021-06-17 15:01:26.921198,-0.102294921875,0.7503662109375,-0.38818359375,-4.39453125,7.99560546875,2.50244140625,6
2021-06-17 15:01:26.983005,-0.073974609375,0.742431640625,-0.35986328125,-8.7890625,3.35693359375,1.708984375,6
2021-06-17 15:01:27.045607,-0.094970703125,0.7064208984375,-0.3199462890625,-2.38037109375,0.30517578125,-2.5634765625,6
2021-06-17 15:01:27.107857,-0.079345703125,0.6851806640625,-0.391845703125,7.2021484375,-11.8408203125,0.42724609375,6
2021-06-17 15:01:27.169738,-0.0477294921875,0.708740234375,-0.4356689453125,6.9580078125,-20.81298828125,4.8828125,6
2021-06-17 15:01:27.262854,-0.033447265625,0.7484130859375,-0.466064453125,4.5166015625,-30.57861328125,9.521484375,6
2021-06-17 15:01:27.325043,-0.0521240234375,0.8358154296875,-0.525146484375,5.126953125,-27.34375,11.71875,6
2021-06-17 15:01:27.387137,-0.052001953125,0.882080078125,-0.591552734375,6.591796875,-17.333984375,9.521484375,6
2021-06-17 15:01:27.449032,-0.039306640625,0.856201171875,-0.6015625,13.5498046875,-1.8310546875,7.01904296875,6
2021-06-17 15:01:27.510482,-0.0382080078125,0.7503662109375,-0.539306640625,19.83642578125,2.86865234375,1.40380859375,6
2021-06-17 15:01:27.573878,-0.0556640625,0.727783203125,-0.51318359375,13.7939453125,4.08935546875,-1.64794921875,6
2021-06-17 15:01:27.635794,-0.0496826171875,0.7586669921875,-0.5164794921875,3.35693359375,9.70458984375,-1.708984375,7
2021-06-17 15:01:27.697460,-0.03564453125,0.7642822265625,-0.53173828125,0.0,12.451171875,-3.2958984375,7
2021-06-17 15:01:27.759282,-0.032470703125,0.754150390625,-0.5360107421875,-3.35693359375,7.50732421875,-3.60107421875,7
2021-06-17 15:01:27.821296,-0.039794921875,0.7786865234375,-0.507568359375,-4.0283203125,4.08935546875,-1.40380859375,6
2021-06-17 15:01:27.883097,-0.0089111328125,0.8353271484375,-0.4837646484375,-8.48388671875,-0.6103515625,-1.46484375,6
2021-06-17 15:01:27.945425,-0.0079345703125,0.860595703125,-0.4520263671875,-8.23974609375,-4.33349609375,-2.685546875,6
