arrival_time,acc_x,acc_y,acc_z,rot_x,rot_y,rot_z,ir_dist
2021-06-17 14:54:51.937008,1.0091552734375,0.0098876953125,0.108642578125,-2.50244140625,-6.8359375,-0.30517578125,9
2021-06-17 14:54:51.999267,1.0079345703125,0.011962890625,0.110107421875,-1.40380859375,-6.04248046875,-0.1220703125,9
2021-06-17 14:54:52.062613,1.00634765625,0.0106201171875,0.103759765625,-1.0986328125,-5.4931640625,-0.91552734375,9
2021-06-17 14:54:52.125730,1.0103759765625,0.0111083984375,0.0999755859375,-0.8544921875,-4.638671875,-1.708984375,9
2021-06-17 14:54:52.188948,1.00439453125,0.011474609375,0.093505859375,-1.46484375,-5.126953125,-2.01416015625,9
2021-06-17 14:54:52.250358,1.00341796875,0.01025390625,0.0966796875,-0.79345703125,-5.43212890625,-2.25830078125,9
2021-06-17 14:54:52.312577,1.0015869140625,0.00439453125,0.096923828125,-1.03759765625,-6.34765625,-2.38037109375,9
2021-06-17 14:54:52.375376,1.009521484375,0.0103759765625,0.1019287109375,-1.8310546875,-5.615234375,-2.5634765625,9
2021-06-17 14:54:52.437969,1.009765625,0.00927734375,0.1103515625,-1.15966796875,-5.37109375,-2.0751953125,9
2021-06-17 14:54:52.500714,1.0072021484375,0.0142822265625,0.10107421875,-0.91552734375,-6.103515625,-1.77001953125,9
2021-06-17 14:54:52.562557,1.0003662109375,0.017822265625,0.1007080078125,-0.18310546875,-6.103515625,-1.89208984375,9
2021-06-17 14:54:52.625438,1.00927734375,0.00927734375,0.09912109375,0.48828125,-6.04248046875,-1.89208984375,9
2021-06-17 14:54:52.688427,1.0052490234375,0.0184326171875,0.10400390625,0.1220703125,-6.28662109375,-1.5869140625,9
2021-06-17 14:54:52.781740,1.00390625,0.0213623046875,0.1021728515625,0.6103515625,-5.615234375,-2.50244140625,9
2021-06-17 14:54:52.875738,1.0078125,0.01513671875,0.097900390625,0.54931640625,-5.67626953125,-2.9296875,9
2021-06-17 14:54:52.938252,1.0025634765625,0.021240234375,0.099609375,1.40380859375,-5.9814453125,-3.35693359375,9
2021-06-17 14:54:53.000568,1.00244140625,0.017578125,0.0965576171875,5.18798828125,-6.7138671875,-2.62451171875,9
2021-06-17 14:54:53.062192,1.03076171875,0.0067138671875,0.0897216796875,2.99072265625,-8.7890625,-4.45556640625,9
2021-06-17 14:54:53.154684,1.0216064453125,0.021484375,0.09130859375,-1.52587890625,-11.65771484375,-3.84521484375,9
2021-06-17 14:54:53.217014,1.0205078125,0.023193359375,0.093505859375,-2.01416015625,-13.36669921875,-5.2490234375,9
2021-06-17 14:54:53.279485,1.013916015625,0.025390625,0.0872802734375,-3.7841796875,-13.5498046875,-6.2255859375,9
2021-06-17 14:54:53.342615,1.0028076171875,0.0328369140625,0.0772705078125,-5.55419921875,-11.474609375,-8.11767578125,9
2021-06-17 14:54:53.405804,1.006103515625,0.02880859375,0.061279296875,-7.32421875,-9.1552734375,-8.1787109375,9
2021-06-17 14:54:53.467371,0.98876953125,0.045166015625,0.06494140625,-8.11767578125,-7.26318359375,-6.77490234375,9
2021-06-17 14:54:53.529358,0.9796142578125,0.0631103515625,0.0577392578125,-9.27734375,-4.150390625,-4.57763671875,9
2021-06-17 14:54:53.591836,0.985595703125,0.0867919921875,0.0731201171875,-3.35693359375,0.06103515625,-4.150390625,9
2021-06-17 14:54:53.684493,0.99755859375,0.0875244140625,0.080078125,-0.244140625,-0.1220703125,-4.8828125,9
2021-06-17 14:54:53.746653,1.017578125,0.074951171875,0.0787353515625,2.38037109375,-0.18310546875,-4.7607421875,9
2021-06-17 14:54:53.808324,0.996826171875,0.0885009765625,0.07421875,3.35693359375,1.40380859375,-3.0517578125,9
2021-06-17 14:54:53.870539,0.9832763671875,0.0985107421875,0.0843505859375,5.43212890625,4.94384765625,-2.9296875,9
2021-06-17 14:54:53.934328,1.0040283203125,0.1387939453125,0.08251953125,4.7607421875,4.33349609375,-0.8544921875,9
2021-06-17 14:54:54.029104,1.0194091796875,0.16650390625,0.1060791015625,2.3193359375,-0.48828125,2.01416015625,9
2021-06-17 14:54:54.091809,1.01416015625,0.181884765625,0.1220703125,1.28173828125,-1.52587890625,0.54931640625,9
2021-06-17 14:54:54.153016,0.98779296875,0.1881103515625,0.1153564453125,1.220703125,-2.74658203125,-1.3427734375,9
2021-06-17 14:54:54.214867,0.966552734375,0.171875,0.0972900390625,5.55419921875,-2.38037109375,-3.11279296875,9
2021-06-17 14:54:54.278898,0.935302734375,0.1624755859375,0.0838623046875,7.87353515625,-1.3427734375,-3.90625,9
2021-06-17 14:54:54.342084,0.893310546875,0.1552734375,0.069580078125,7.50732421875,1.52587890625,-4.08935546875,9
2021-06-17 14:54:54.404372,0.844482421875,0.165771484375,0.080078125,0.732421875,6.40869140625,-4.82177734375,9
2021-06-17 14:54:54.466877,0.81298828125,0.1947021484375,0.080810546875,2.50244140625,5.126953125,-8.11767578125,9
2021-06-17 14:54:54.528777,0.839599609375,0.2174072265625,0.0908203125,-0.18310546875,5.4931640625,-9.6435546875,9
2021-06-17 14:54:54.592209,0.9263916015625,0.245849609375,0.113037109375,2.3193359375,2.9296875,-7.50732421875,9
2021-06-17 14:54:54.655249,0.9417724609375,0.27001953125,0.133544921875,5.7373046875,2.5634765625,-3.35693359375,9
2021-06-17 14:54:54.718931,0.9678955078125,0.3218994140625,0.1295166015625,5.615234375,2.74658203125,-0.54931640625,9
2021-06-17 14:54:54.781329,1.000732421875,0.345703125,0.1319580078125,7.26318359375,2.9296875,4.2724609375,9
2021-06-17 14:54:54.845406,1.0,0.34716796875,0.1116943359375,6.89697265625,2.13623046875,5.43212890625,9
2021-06-17 14:54:54.908327,0.9984130859375,0.3643798828125,0.0948486328125,3.72314453125,1.40380859375,5.126953125,9
2021-06-17 14:54:54.970899,0.985595703125,0.34423828125,0.0994873046875,-2.74658203125,-1.52587890625,4.45556640625,9
2021-06-17 14:54:55.033253,1.0234375,0.2857666015625,0.11376953125,-4.94384765625,-4.69970703125,3.35693359375,9
2021-06-17 14:54:55.096099,1.1439208984375,0.1290283203125,0.1929931640625,-8.97216796875,-9.3994140625,-1.77001953125,9
2021-06-17 14:54:55.159041,1.0931396484375,0.13525390625,0.205322265625,-6.2255859375,-7.99560546875,-3.173828125,9
2021-06-17 14:54:55.220726,0.9093017578125,0.0679931640625,0.168212890625,-5.55419921875,-4.21142578125,3.84521484375,9
2021-06-17 14:54:55.282403,0.94970703125,-0.080810546875,0.1627197265625,-5.43212890625,1.5869140625,1.46484375,9
2021-06-17 14:54:55.377274,0.847900390625,-0.0419921875,0.149658203125,-11.71875,0.732421875,4.8828125,9
2021-06-17 14:54:55.441975,0.904541015625,-0.1207275390625,0.1434326171875,-6.4697265625,-0.48828125,8.85009765625,9
2021-06-17 14:54:55.504678,0.93505859375,-0.148681640625,0.16259765625,-10.43701171875,-3.2958984375,9.521484375,9
2021-06-17 14:54:55.567312,0.9482421875,-0.1229248046875,0.1884765625,-17.333984375,-1.28173828125,11.16943359375,9
2021-06-17 14:54:55.629501,1.0064697265625,-0.13671875,0.1993408203125,-12.6953125,-2.0751953125,11.16943359375,9
2021-06-17 14:54:55.691657,1.01611328125,-0.1317138671875,0.214599609375,-15.9912109375,2.197265625,12.26806640625,9
2021-06-17 14:54:55.754373,0.9925537109375,-0.1083984375,0.205322265625,-13.3056640625,3.96728515625,11.16943359375,9
2021-06-17 14:54:55.815991,1.0887451171875,-0.1453857421875,0.246337890625,-12.14599609375,3.11279296875,4.57763671875,9
2021-06-17 14:54:55.878870,1.0765380859375,-0.146240234375,0.2650146484375,-7.9345703125,-2.9296875,-0.732421875,9
2021-06-17 14:54:55.941618,0.9898681640625,-0.1400146484375,0.2855224609375,-12.51220703125,-3.60107421875,-6.591796875,9
2021-06-17 14:54:56.005134,0.9755859375,-0.138671875,0.3291015625,-15.5029296875,-5.79833984375,-14.58740234375,9
2021-06-17 14:54:56.068037,1.008544921875,-0.1287841796875,0.31787109375,-13.3056640625,-10.07080078125,-0.18310546875,9
2021-06-17 14:54:56.130916,0.9244384765625,-0.136962890625,0.3148193359375,-10.3759765625,-10.7421875,-13.916015625,9
2021-06-17 14:54:56.194085,0.9326171875,-0.12890625,0.3076171875,-9.033203125,-4.8828125,-12.451171875,9
2021-06-17 14:54:56.257682,0.9649658203125,-0.0921630859375,0.3201904296875,-2.8076171875,-2.9296875,-14.09912109375,9
2021-06-17 14:54:56.321246,0.99951171875,-0.0697021484375,0.317626953125,1.220703125,3.11279296875,-5.859375,9
2021-06-17 14:54:56.383459,1.022216796875,-0.037109375,0.318115234375,1.5869140625,7.080078125,-0.9765625,9
2021-06-17 14:54:56.445772,1.086181640625,-0.0228271484375,0.324951171875,4.94384765625,7.2021484375,-2.62451171875,9
2021-06-17 14:54:56.507364,1.1063232421875,-0.00732421875,0.302978515625,4.08935546875,9.46044921875,1.220703125,9
2021-06-17 14:54:56.570305,1.120849609375,-0.003662109375,0.3251953125,7.99560546875,10.31494140625,-0.244140625,9
2021-06-17 14:54:56.630893,1.097900390625,-0.007080078125,0.312255859375,4.2724609375,5.0048828125,-1.46484375,9
2021-06-17 14:54:56.692798,1.0777587890625,0.007568359375,0.2978515625,1.28173828125,2.74658203125,-3.41796875,9
2021-06-17 14:54:56.754443,1.1546630859375,-0.0345458984375,0.3438720703125,-1.0986328125,-5.92041015625,-4.69970703125,9
2021-06-17 14:54:56.817004,1.1669921875,-0.004638671875,0.38720703125,-5.18798828125,-11.71875,-0.732421875,9
2021-06-17 14:54:56.879687,1.126708984375,0.0125732421875,0.3958740234375,-3.7841796875,-7.9345703125,1.52587890625,9
2021-06-17 14:54:56.942354,1.05810546875,0.0074462890625,0.3909912109375,-4.150390625,-4.5166015625,2.01416015625,9
2021-06-17 14:54:57.004883,1.03564453125,0.003662109375,0.358154296875,-4.2724609375,-7.9345703125,1.15966796875,9
2021-06-17 14:54:57.068115,1.0118408203125,-0.042724609375,0.3515625,-0.54931640625,-7.50732421875,1.46484375,9
2021-06-17 14:54:57.130275,1.0140380859375,-0.0899658203125,0.3504638671875,0.06103515625,-9.09423828125,-1.220703125,9
2021-06-17 14:54:57.192946,0.990478515625,-0.09033203125,0.3358154296875,-0.30517578125,-8.36181640625,-1.15966796875,9
2021-06-17 14:54:57.253849,1.0340576171875,-0.136474609375,0.3245849609375,2.3193359375,-9.70458984375,0.3662109375,9
2021-06-17 14:54:57.316024,1.0618896484375,-0.1484375,0.340576171875,3.47900390625,-7.01904296875,0.9765625,9
2021-06-17 14:54:57.379819,1.0615234375,-0.1448974609375,0.32666015625,2.197265625,-8.6669921875,0.6103515625,9
2021-06-17 14:54:57.441358,1.042236328125,-0.1624755859375,0.3206787109375,2.50244140625,-10.3759765625,0.30517578125,9
2021-06-17 14:54:57.502920,1.0355224609375,-0.1553955078125,0.3201904296875,-1.5869140625,-10.68115234375,-3.84521484375,9
2021-06-17 14:54:57.565513,1.019287109375,-0.175537109375,0.2880859375,-3.90625,-11.90185546875,-5.7373046875,9
2021-06-17 14:54:57.627639,0.9976806640625,-0.1827392578125,0.309814453125,-3.7841796875,-14.6484375,-8.6669921875,9
2021-06-17 14:54:57.689265,0.9820556640625,-0.181396484375,0.2994384765625,-6.4697265625,-19.53125,-11.474609375,9
2021-06-17 14:54:57.752734,0.966552734375,-0.182861328125,0.2864990234375,-1.64794921875,-23.0712890625,-15.31982421875,9
2021-06-17 14:54:57.816517,0.9365234375,-0.1697998046875,0.2735595703125,0.48828125,-24.4140625,-16.9677734375,9
2021-06-17 14:54:57.878769,0.9517822265625,-0.13037109375,0.2464599609375,4.638671875,-25.08544921875,-19.22607421875,9
2021-06-17 14:54:57.941934,0.935791015625,-0.0694580078125,0.216064453125,8.23974609375,-23.3154296875,-22.03369140625,9
2021-06-17 14:54:58.005050,0.9083251953125,0.0672607421875,0.151123046875,13.61083984375,-23.3154296875,-22.64404296875,9
2021-06-17 14:54:58.067103,0.898681640625,0.248779296875,0.074462890625,13.3056640625,-25.87890625,-21.1181640625,9
2021-06-17 14:54:58.129811,0.9010009765625,0.34716796875,0.0052490234375,12.5732421875,-21.1181640625,-7.080078125,9
2021-06-17 14:54:58.193609,0.9044189453125,0.3695068359375,-0.017578125,11.5966796875,-13.0615234375,-0.244140625,9
2021-06-17 14:54:58.256697,0.913330078125,0.4337158203125,0.01953125,5.7373046875,-9.94873046875,-0.6103515625,9
2021-06-17 14:54:58.320058,0.944091796875,0.454833984375,0.067626953125,1.52587890625,-15.93017578125,2.685546875,9
2021-06-17 14:54:58.383189,0.947021484375,0.4263916015625,0.0814208984375,-2.25830078125,-26.9775390625,3.60107421875,9
2021-06-17 14:54:58.447188,0.962646484375,0.3958740234375,0.0906982421875,-1.0986328125,-27.9541015625,2.99072265625,9
2021-06-17 14:54:58.509743,0.9256591796875,0.3787841796875,0.0867919921875,-1.8310546875,-23.74267578125,3.23486328125,9
2021-06-17 14:54:58.572591,0.884521484375,0.3660888671875,0.0721435546875,-2.197265625,-19.775390625,1.77001953125,9
2021-06-17 14:54:58.634356,0.845947265625,0.3338623046875,0.0152587890625,0.42724609375,-15.5029296875,2.197265625,9
2021-06-17 14:54:58.697036,0.830078125,0.2757568359375,0.0013427734375,-0.06103515625,-9.765625,1.46484375,9
2021-06-17 14:54:58.760120,0.8375244140625,0.257568359375,0.0048828125,-4.2724609375,-6.34765625,-2.01416015625,9
2021-06-17 14:54:58.821752,0.853271484375,0.2412109375,0.0089111328125,-4.5166015625,-4.8828125,0.0,9
2021-06-17 14:54:58.884443,0.892822265625,0.2135009765625,0.0364990234375,-3.41796875,-4.8828125,2.62451171875,9
2021-06-17 14:54:58.947324,0.9453125,0.2633056640625,0.05859375,-4.57763671875,-5.55419921875,8.1787109375,9
2021-06-17 14:54:59.010426,0.9620361328125,0.185302734375,0.0655517578125,-5.18798828125,-8.36181640625,11.474609375,9
2021-06-17 14:54:59.073338,1.0169677734375,0.1805419921875,0.0079345703125,-5.4931640625,-10.31494140625,12.3291015625,9
2021-06-17 14:54:59.134893,1.031982421875,0.1622314453125,0.0220947265625,-6.89697265625,-8.4228515625,12.3291015625,9
2021-06-17 14:54:59.197116,1.01025390625,0.158203125,0.04052734375,-10.07080078125,-7.99560546875,6.103515625,9
2021-06-17 14:54:59.261143,1.0184326171875,0.140625,0.0391845703125,-8.7890625,-5.4931640625,0.30517578125,9
2021-06-17 14:54:59.323483,1.018798828125,0.1358642578125,0.05859375,-3.60107421875,-5.18798828125,-4.21142578125,9
2021-06-17 14:54:59.386392,1.0172119140625,0.1322021484375,0.0948486328125,-1.5869140625,-3.47900390625,-5.92041015625,9
2021-06-17 14:54:59.449518,0.9954833984375,0.1710205078125,0.107666015625,2.9296875,-0.79345703125,-6.9580078125,9
2021-06-17 14:54:59.511611,0.997802734375,0.188720703125,0.115478515625,11.5966796875,0.79345703125,-6.9580078125,9
2021-06-17 14:54:59.572390,1.00048828125,0.201904296875,0.1064453125,20.1416015625,1.15966796875,-3.35693359375,9
2021-06-17 14:54:59.635383,0.9580078125,0.211669921875,0.0980224609375,23.01025390625,1.03759765625,-3.173828125,9
2021-06-17 14:54:59.699145,0.8917236328125,0.2249755859375,0.061767578125,23.13232421875,0.9765625,-4.69970703125,9
2021-06-17 14:54:59.761574,0.8814697265625,0.1966552734375,0.06005859375,21.66748046875,0.30517578125,-6.8359375,9
2021-06-17 14:54:59.824261,0.8291015625,0.19921875,0.0533447265625,19.8974609375,0.91552734375,-9.70458984375,9
2021-06-17 14:54:59.886351,0.83740234375,0.198486328125,0.0550537109375,23.13232421875,4.638671875,-11.77978515625,9
