arrival_time,acc_x,acc_y,acc_z,rot_x,rot_y,rot_z,ir_dist
2021-06-17 14:39:20.809117,0.7698974609375,0.407958984375,-0.4599609375,2.01416015625,-4.150390625,-1.708984375,1227
2021-06-17 14:39:20.871018,0.7762451171875,0.410888671875,-0.46337890625,1.0986328125,-3.84521484375,-1.708984375,1074
2021-06-17 14:39:20.935001,0.7747802734375,0.39794921875,-0.4642333984375,2.197265625,-3.90625,-1.52587890625,1227
2021-06-17 14:39:20.998136,0.7742919921875,0.40234375,-0.469970703125,1.64794921875,-4.08935546875,-1.46484375,1380
2021-06-17 14:39:21.060970,0.77392578125,0.4033203125,-0.479248046875,1.89208984375,-5.18798828125,-1.708984375,1380
2021-06-17 14:39:21.123251,0.7677001953125,0.4080810546875,-0.4718017578125,0.732421875,-5.79833984375,-1.77001953125,1227
2021-06-17 14:39:21.186759,0.7625732421875,0.4097900390625,-0.4697265625,0.79345703125,-6.16455078125,-1.40380859375,1380
2021-06-17 14:39:21.250012,0.7652587890625,0.4178466796875,-0.473876953125,0.54931640625,-5.4931640625,-1.40380859375,1227
2021-06-17 14:39:21.313361,0.7618408203125,0.4110107421875,-0.467041015625,1.15966796875,-5.55419921875,-1.15966796875,1227
2021-06-17 14:39:21.375020,0.7620849609375,0.4136962890625,-0.4638671875,0.732421875,-5.0048828125,-1.77001953125,953
2021-06-17 14:39:21.437602,0.766357421875,0.4112548828125,-0.4715576171875,1.5869140625,-4.33349609375,-1.953125,1227
2021-06-17 14:39:21.499222,0.760986328125,0.404296875,-0.4820556640625,1.52587890625,-5.2490234375,-1.64794921875,1227
2021-06-17 14:39:21.593600,0.761474609375,0.40625,-0.4859619140625,-0.1220703125,-5.06591796875,-1.5869140625,1227
2021-06-17 14:39:21.656513,0.7681884765625,0.4102783203125,-0.4837646484375,0.18310546875,-5.31005859375,-1.03759765625,1227
2021-06-17 14:39:21.718305,0.764404296875,0.408203125,-0.4776611328125,-0.732421875,-5.4931640625,-1.03759765625,1227
2021-06-17 14:39:21.780226,0.763671875,0.4173583984375,-0.473388671875,-1.03759765625,-4.82177734375,-1.03759765625,1227
2021-06-17 14:39:21.873038,0.7659912109375,0.4122314453125,-0.46923828125,0.06103515625,-4.7607421875,-0.6103515625,1227
2021-06-17 14:39:21.935208,0.764892578125,0.412841796875,-0.4771728515625,0.1220703125,-4.33349609375,-0.67138671875,1380
2021-06-17 14:39:21.998133,0.75927734375,0.41162109375,-0.478515625,-0.244140625,-4.0283203125,-0.6103515625,1227
2021-06-17 14:39:22.061201,0.7584228515625,0.4095458984375,-0.47705078125,-0.8544921875,-4.150390625,-0.6103515625,1227
2021-06-17 14:39:22.123898,0.7591552734375,0.4144287109375,-0.4820556640625,-1.3427734375,-4.2724609375,-0.54931640625,1380
2021-06-17 14:39:22.186046,0.7598876953125,0.4132080078125,-0.4755859375,-1.52587890625,-4.39453125,-0.54931640625,1227
2021-06-17 14:39:22.247865,0.7705078125,0.4224853515625,-0.487060546875,-0.732421875,-4.82177734375,-0.79345703125,1227
2021-06-17 14:39:22.310828,0.765380859375,0.415283203125,-0.468994140625,1.15966796875,-6.34765625,-1.28173828125,1380
2021-06-17 14:39:22.373811,0.766357421875,0.4248046875,-0.4945068359375,3.2958984375,-6.53076171875,-2.01416015625,1227
2021-06-17 14:39:22.436300,0.76953125,0.434326171875,-0.507080078125,3.60107421875,-8.23974609375,-3.5400390625,1227
2021-06-17 14:39:22.497472,0.7611083984375,0.431396484375,-0.507568359375,2.13623046875,-10.19287109375,-4.638671875,1380
2021-06-17 14:39:22.560857,0.7628173828125,0.43603515625,-0.5166015625,2.197265625,-13.671875,-6.28662109375,1227
2021-06-17 14:39:22.623139,0.7904052734375,0.454833984375,-0.5390625,2.99072265625,-19.4091796875,-8.60595703125,1227
2021-06-17 14:39:22.685111,0.78662109375,0.4522705078125,-0.551513671875,4.57763671875,-24.4140625,-10.498046875,1380
2021-06-17 14:39:22.748218,0.78076171875,0.465087890625,-0.5772705078125,6.2255859375,-31.67724609375,-13.5498046875,1227
2021-06-17 14:39:22.809575,0.78662109375,0.4744873046875,-0.6270751953125,8.7890625,-40.4052734375,-17.2119140625,1227
2021-06-17 14:39:22.871747,0.7576904296875,0.4716796875,-0.6358642578125,11.3525390625,-48.40087890625,-20.751953125,409
2021-06-17 14:39:22.965369,0.61328125,0.476806640625,-0.6708984375,7.62939453125,-62.56103515625,-27.099609375,187
2021-06-17 14:39:23.027945,0.5684814453125,0.5069580078125,-0.70947265625,-0.42724609375,-66.71142578125,-29.96826171875,159
2021-06-17 14:39:23.090518,0.4852294921875,0.5133056640625,-0.69775390625,-1.953125,-68.66455078125,-29.296875,270
2021-06-17 14:39:23.154333,0.46435546875,0.49658203125,-0.7103271484375,-4.0283203125,-68.29833984375,-32.16552734375,198
2021-06-17 14:39:23.216588,0.455322265625,0.4967041015625,-0.7269287109375,-1.64794921875,-67.7490234375,-32.65380859375,141
2021-06-17 14:39:23.279220,0.4091796875,0.4510498046875,-0.725830078125,6.28662109375,-67.56591796875,-31.67724609375,112
2021-06-17 14:39:23.372933,0.354248046875,0.44873046875,-0.75927734375,10.1318359375,-63.41552734375,-27.16064453125,37
2021-06-17 14:39:23.435293,0.3150634765625,0.4552001953125,-0.756591796875,6.591796875,-63.17138671875,-20.44677734375,23
2021-06-17 14:39:23.497518,0.23828125,0.4886474609375,-0.7728271484375,2.74658203125,-60.48583984375,-17.88330078125,7
2021-06-17 14:39:23.560643,0.1810302734375,0.498291015625,-0.7979736328125,2.9296875,-58.10546875,-13.24462890625,5
2021-06-17 14:39:23.622192,0.1204833984375,0.499267578125,-0.7852783203125,6.34765625,-55.17578125,-12.02392578125,7
2021-06-17 14:39:23.685268,0.0859375,0.5015869140625,-0.7681884765625,8.544921875,-53.28369140625,-11.474609375,7
2021-06-17 14:39:23.748798,0.05517578125,0.5096435546875,-0.7774658203125,11.77978515625,-50.84228515625,-11.3525390625,6
2021-06-17 14:39:23.812413,0.0360107421875,0.4713134765625,-0.80712890625,11.71875,-47.18017578125,-11.1083984375,6
2021-06-17 14:39:23.875088,0.015869140625,0.4654541015625,-0.7913818359375,10.19287109375,-43.15185546875,-10.55908203125,5
2021-06-17 14:39:23.937648,-0.00048828125,0.4818115234375,-0.8460693359375,2.3193359375,-41.44287109375,-10.07080078125,5
2021-06-17 14:39:24.001323,-0.0487060546875,0.4581298828125,-0.8052978515625,2.44140625,-40.283203125,-8.7890625,5
2021-06-17 14:39:24.094774,-0.076904296875,0.4842529296875,-0.8056640625,-2.197265625,-36.07177734375,-8.7890625,4
2021-06-17 14:39:24.157092,-0.1424560546875,0.4708251953125,-0.7901611328125,-2.50244140625,-33.02001953125,-8.72802734375,4
2021-06-17 14:39:24.220273,-0.164306640625,0.47607421875,-0.767333984375,-5.92041015625,-27.03857421875,-7.8125,4
2021-06-17 14:39:24.283035,-0.17431640625,0.453857421875,-0.7445068359375,-3.11279296875,-21.1181640625,-6.2255859375,4
2021-06-17 14:39:24.346048,-0.1763916015625,0.4815673828125,-0.75439453125,-8.1787109375,-13.97705078125,-5.2490234375,4
2021-06-17 14:39:24.409176,-0.1827392578125,0.4520263671875,-0.7420654296875,-1.708984375,-6.53076171875,-3.35693359375,4
2021-06-17 14:39:24.472013,-0.181640625,0.447998046875,-0.7452392578125,-5.0048828125,0.54931640625,-0.1220703125,4
2021-06-17 14:39:24.536121,-0.1810302734375,0.46240234375,-0.7750244140625,-3.47900390625,6.8359375,3.2958984375,4
2021-06-17 14:39:24.599445,-0.1641845703125,0.4913330078125,-0.7828369140625,-8.7890625,10.07080078125,4.150390625,4
2021-06-17 14:39:24.660672,-0.158447265625,0.48486328125,-0.7835693359375,-6.65283203125,13.0615234375,7.080078125,4
2021-06-17 14:39:24.723608,-0.13427734375,0.49169921875,-0.804931640625,-7.38525390625,14.2822265625,8.72802734375,4
2021-06-17 14:39:24.786466,-0.119140625,0.489501953125,-0.766357421875,-5.06591796875,15.5029296875,10.55908203125,4
2021-06-17 14:39:24.849004,-0.1002197265625,0.5181884765625,-0.784423828125,-5.2490234375,18.310546875,10.7421875,4
2021-06-17 14:39:24.911445,-0.0592041015625,0.5238037109375,-0.7904052734375,-5.4931640625,20.56884765625,11.8408203125,4
2021-06-17 14:39:24.973799,-0.0340576171875,0.521484375,-0.8001708984375,-1.52587890625,22.64404296875,11.8408203125,4
2021-06-17 14:39:25.035350,-0.0198974609375,0.49755859375,-0.784912109375,0.79345703125,25.146484375,11.71875,4
2021-06-17 14:39:25.098042,0.0419921875,0.54296875,-0.829833984375,1.220703125,25.08544921875,10.80322265625,5
2021-06-17 14:39:25.161105,0.00146484375,0.48486328125,-0.783935546875,1.52587890625,27.03857421875,12.20703125,5
2021-06-17 14:39:25.232217,0.054443359375,0.53662109375,-0.812744140625,0.79345703125,28.86962890625,12.3291015625,5
2021-06-17 14:39:25.295215,0.05322265625,0.515869140625,-0.759033203125,-2.197265625,30.45654296875,13.85498046875,6
2021-06-17 14:39:25.356954,0.1461181640625,0.5521240234375,-0.816650390625,-3.41796875,32.77587890625,12.939453125,6
2021-06-17 14:39:25.418535,0.12744140625,0.5048828125,-0.7608642578125,-3.11279296875,33.14208984375,14.5263671875,6
2021-06-17 14:39:25.481518,0.2032470703125,0.5460205078125,-0.808349609375,-1.89208984375,36.7431640625,15.0146484375,7
2021-06-17 14:39:25.542555,0.235107421875,0.505859375,-0.77880859375,1.52587890625,33.75244140625,15.5029296875,7
2021-06-17 14:39:25.604822,0.2076416015625,0.5196533203125,-0.7554931640625,2.38037109375,36.92626953125,16.54052734375,5
2021-06-17 14:39:25.667431,0.2806396484375,0.495849609375,-0.790771484375,3.5400390625,35.58349609375,18.06640625,6
2021-06-17 14:39:25.731237,0.276611328125,0.5167236328125,-0.7578125,-4.2724609375,38.9404296875,19.22607421875,7
2021-06-17 14:39:25.792770,0.363525390625,0.5135498046875,-0.7667236328125,-3.5400390625,36.68212890625,17.88330078125,8
2021-06-17 14:39:25.855280,0.341796875,0.50830078125,-0.6983642578125,-3.11279296875,38.57421875,17.08984375,16
2021-06-17 14:39:25.918937,0.4256591796875,0.5106201171875,-0.7537841796875,-2.8076171875,40.95458984375,17.08984375,33
2021-06-17 14:39:25.981643,0.43896484375,0.5023193359375,-0.6849365234375,2.197265625,40.71044921875,17.578125,63
2021-06-17 14:39:26.043507,0.4486083984375,0.4705810546875,-0.6903076171875,3.23486328125,43.02978515625,18.61572265625,71
2021-06-17 14:39:26.106397,0.557373046875,0.4820556640625,-0.6844482421875,0.3662109375,43.5791015625,19.4091796875,106
2021-06-17 14:39:26.169298,0.539306640625,0.46142578125,-0.6463623046875,-0.244140625,43.27392578125,20.99609375,155
2021-06-17 14:39:26.232701,0.568115234375,0.4730224609375,-0.69091796875,0.244140625,44.43359375,20.93505859375,306
2021-06-17 14:39:26.296022,0.5887451171875,0.47509765625,-0.6658935546875,-0.79345703125,43.76220703125,20.751953125,192
2021-06-17 14:39:26.358489,0.6256103515625,0.4505615234375,-0.6229248046875,2.01416015625,40.771484375,19.59228515625,126
2021-06-17 14:39:26.421056,0.6171875,0.488525390625,-0.6622314453125,1.220703125,43.0908203125,18.24951171875,490
2021-06-17 14:39:26.483694,0.7410888671875,0.4471435546875,-0.5877685546875,7.50732421875,37.17041015625,17.15087890625,490
2021-06-17 14:39:26.546616,0.693115234375,0.4593505859375,-0.535400390625,3.7841796875,37.17041015625,16.2353515625,168
2021-06-17 14:39:26.610538,0.771484375,0.442626953125,-0.5439453125,7.50732421875,35.64453125,13.85498046875,1227
2021-06-17 14:39:26.673656,0.775146484375,0.4166259765625,-0.518310546875,5.79833984375,32.3486328125,13.427734375,1380
2021-06-17 14:39:26.737657,0.7613525390625,0.419189453125,-0.5009765625,5.126953125,35.46142578125,13.12255859375,1380
2021-06-17 14:39:26.800719,0.7880859375,0.3978271484375,-0.4659423828125,0.06103515625,32.958984375,10.8642578125,1227
2021-06-17 14:39:26.864639,0.8184814453125,0.3824462890625,-0.4520263671875,0.91552734375,30.45654296875,11.5966796875,1380
2021-06-17 14:39:26.927450,0.840576171875,0.381103515625,-0.4512939453125,3.11279296875,29.23583984375,11.3525390625,1227
2021-06-17 14:39:26.989749,0.8468017578125,0.36376953125,-0.4288330078125,6.40869140625,24.47509765625,9.6435546875,1074
2021-06-17 14:39:27.052354,0.8468017578125,0.371826171875,-0.4249267578125,8.4228515625,23.0712890625,10.07080078125,706
2021-06-17 14:39:27.114718,0.85986328125,0.3603515625,-0.3919677734375,9.94873046875,21.240234375,8.6669921875,241
2021-06-17 14:39:27.175783,0.84814453125,0.350830078125,-0.3778076171875,7.8125,21.240234375,7.62939453125,141
2021-06-17 14:39:27.238856,0.9093017578125,0.3583984375,-0.3868408203125,7.8125,19.47021484375,7.4462890625,108
2021-06-17 14:39:27.302624,0.8892822265625,0.3480224609375,-0.35888671875,3.23486328125,14.58740234375,7.26318359375,110
2021-06-17 14:39:27.366583,0.9339599609375,0.35791015625,-0.40283203125,2.9296875,8.6669921875,4.69970703125,124
2021-06-17 14:39:27.429712,0.9342041015625,0.39501953125,-0.4473876953125,4.45556640625,-1.77001953125,2.25830078125,116
2021-06-17 14:39:27.491487,0.8892822265625,0.3831787109375,-0.446044921875,-0.1220703125,-12.39013671875,-3.23486328125,121
2021-06-17 14:39:27.554097,0.9049072265625,0.39306640625,-0.4910888671875,2.685546875,-20.69091796875,-8.60595703125,121
2021-06-17 14:39:27.617331,0.91650390625,0.3868408203125,-0.480712890625,1.28173828125,-34.48486328125,-17.02880859375,119
2021-06-17 14:39:27.679043,0.912353515625,0.4002685546875,-0.5048828125,0.18310546875,-48.76708984375,-21.91162109375,159
2021-06-17 14:39:27.741281,0.8984375,0.397216796875,-0.5252685546875,-1.3427734375,-58.59375,-25.93994140625,211
2021-06-17 14:39:27.804228,0.8599853515625,0.404541015625,-0.5753173828125,-2.685546875,-70.98388671875,-28.50341796875,855
2021-06-17 14:39:27.867022,0.804443359375,0.4349365234375,-0.6192626953125,-1.28173828125,-80.078125,-32.5927734375,1074
2021-06-17 14:39:27.929263,0.7813720703125,0.4478759765625,-0.6385498046875,0.30517578125,-86.669921875,-35.64453125,1227
2021-06-17 14:39:27.991485,0.7325439453125,0.4691162109375,-0.661376953125,4.8828125,-95.3369140625,-37.353515625,211
2021-06-17 14:39:28.054228,0.6689453125,0.448974609375,-0.6478271484375,11.5966796875,-101.86767578125,-36.68212890625,204
2021-06-17 14:39:28.116976,0.639404296875,0.4534912109375,-0.685302734375,7.87353515625,-103.94287109375,-35.5224609375,218
2021-06-17 14:39:28.179356,0.5592041015625,0.4564208984375,-0.6749267578125,9.21630859375,-103.21044921875,-36.376953125,367
2021-06-17 14:39:28.240511,0.4725341796875,0.4989013671875,-0.7052001953125,4.08935546875,-100.89111328125,-33.8134765625,250
2021-06-17 14:39:28.302915,0.3968505859375,0.5047607421875,-0.7489013671875,1.0986328125,-99.06005859375,-33.63037109375,144
2021-06-17 14:39:28.365490,0.349609375,0.490966796875,-0.8028564453125,-4.21142578125,-96.6796875,-33.3251953125,39
2021-06-17 14:39:28.426561,0.2220458984375,0.4652099609375,-0.7703857421875,-4.0283203125,-94.7265625,-32.470703125,18
2021-06-17 14:39:28.489377,0.163330078125,0.441650390625,-0.78076171875,-8.4228515625,-89.111328125,-32.1044921875,5
2021-06-17 14:39:28.550820,0.1422119140625,0.4481201171875,-0.765380859375,-4.33349609375,-82.3974609375,-30.3955078125,6
2021-06-17 14:39:28.613053,0.094482421875,0.4530029296875,-0.7425537109375,-3.47900390625,-76.2939453125,-29.1748046875,7
2021-06-17 14:39:28.675914,0.0499267578125,0.4530029296875,-0.745849609375,-2.8076171875,-64.453125,-26.123046875,6
2021-06-17 14:39:28.738834,-0.019287109375,0.4495849609375,-0.74755859375,-1.708984375,-55.60302734375,-20.751953125,6
