arrival_time,acc_x,acc_y,acc_z,rot_x,rot_y,rot_z,ir_dist
2021-06-17 16:08:51.357614,1.004150390625,0.05615234375,0.0416259765625,-3.72314453125,-5.18798828125,-1.77001953125,13
2021-06-17 16:08:51.433193,1.0089111328125,0.054443359375,0.044189453125,-3.7841796875,-4.8828125,-1.46484375,13
2021-06-17 16:08:51.503274,1.00537109375,0.0533447265625,0.0426025390625,-3.173828125,-5.126953125,-1.03759765625,12
2021-06-17 16:08:51.565794,1.0107421875,0.04833984375,0.045166015625,-2.86865234375,-5.67626953125,-0.9765625,13
2021-06-17 16:08:51.628214,1.009521484375,0.048828125,0.0418701171875,-2.50244140625,-6.04248046875,-1.5869140625,13
2021-06-17 16:08:51.723997,1.00537109375,0.0517578125,0.0438232421875,-2.5634765625,-6.28662109375,-1.708984375,13
2021-06-17 16:08:51.786444,1.005126953125,0.0552978515625,0.0465087890625,-3.35693359375,-5.92041015625,-1.64794921875,13
2021-06-17 16:08:51.848918,1.0020751953125,0.063232421875,0.04248046875,-4.150390625,-6.53076171875,-1.953125,13
2021-06-17 16:08:51.911654,1.0093994140625,0.05615234375,0.040283203125,-4.57763671875,-5.43212890625,-1.8310546875,13
2021-06-17 16:08:51.975381,1.0130615234375,0.057861328125,0.0302734375,-5.31005859375,-6.7138671875,-1.52587890625,13
2021-06-17 16:08:52.037691,1.0078125,0.0562744140625,0.0361328125,-5.18798828125,-6.34765625,-1.8310546875,12
2021-06-17 16:08:52.100389,0.999755859375,0.0576171875,0.0399169921875,-5.126953125,-6.77490234375,-1.8310546875,13
2021-06-17 16:08:52.162842,1.00439453125,0.070556640625,0.0330810546875,-5.615234375,-7.01904296875,-2.13623046875,12
2021-06-17 16:08:52.225345,1.009033203125,0.0704345703125,0.028564453125,-5.79833984375,-6.7138671875,-2.25830078125,13
2021-06-17 16:08:52.287614,1.0074462890625,0.07421875,0.0281982421875,-6.103515625,-6.40869140625,-2.74658203125,13
2021-06-17 16:08:52.351678,1.00341796875,0.079345703125,0.031005859375,-6.7138671875,-6.16455078125,-3.11279296875,13
2021-06-17 16:08:52.414174,1.0035400390625,0.07958984375,0.0311279296875,-6.591796875,-5.67626953125,-2.50244140625,13
2021-06-17 16:08:52.476611,1.0042724609375,0.084716796875,0.031494140625,-6.2255859375,-5.2490234375,-2.50244140625,13
2021-06-17 16:08:52.540531,1.0057373046875,0.08251953125,0.0313720703125,-5.37109375,-5.55419921875,-1.708984375,13
2021-06-17 16:08:52.603449,1.006591796875,0.080322265625,0.0302734375,-4.69970703125,-5.67626953125,-1.220703125,12
2021-06-17 16:08:52.665809,1.0096435546875,0.0819091796875,0.032470703125,-3.5400390625,-5.7373046875,-1.28173828125,12
2021-06-17 16:08:52.728362,1.0069580078125,0.0799560546875,0.030029296875,-3.35693359375,-6.4697265625,-0.91552734375,12
2021-06-17 16:08:52.790862,1.011474609375,0.078125,0.03125,-2.5634765625,-6.53076171875,-0.18310546875,13
2021-06-17 16:08:52.853328,1.005126953125,0.08154296875,0.0277099609375,-1.8310546875,-6.40869140625,-0.48828125,13
2021-06-17 16:08:52.916798,1.0050048828125,0.07861328125,0.028076171875,-1.46484375,-6.2255859375,-0.91552734375,13
2021-06-17 16:08:52.979255,1.0079345703125,0.0799560546875,0.021484375,-1.46484375,-6.53076171875,-0.732421875,12
2021-06-17 16:08:53.041741,1.000732421875,0.0810546875,0.0205078125,-1.15966796875,-6.28662109375,-0.9765625,13
2021-06-17 16:08:53.104226,1.002197265625,0.0810546875,0.0250244140625,-0.30517578125,-5.859375,-0.67138671875,13
2021-06-17 16:08:53.167818,1.0035400390625,0.0770263671875,0.0267333984375,0.48828125,-5.4931640625,-0.18310546875,13
2021-06-17 16:08:53.231278,1.001220703125,0.0738525390625,0.0296630859375,0.732421875,-4.7607421875,-0.54931640625,13
2021-06-17 16:08:53.292718,0.9886474609375,0.0775146484375,0.0416259765625,1.708984375,-3.84521484375,-0.30517578125,12
2021-06-17 16:08:53.354778,1.025146484375,0.0767822265625,0.0599365234375,3.23486328125,-3.84521484375,0.732421875,12
2021-06-17 16:08:53.418118,1.0367431640625,0.0562744140625,0.0611572265625,5.126953125,-4.82177734375,2.38037109375,13
2021-06-17 16:08:53.479991,1.0157470703125,0.033935546875,0.089111328125,4.57763671875,-3.0517578125,3.662109375,13
2021-06-17 16:08:53.543281,1.0025634765625,0.01953125,0.1151123046875,2.25830078125,-3.41796875,4.7607421875,12
2021-06-17 16:08:53.605252,1.0048828125,0.0289306640625,0.1220703125,-0.18310546875,-9.033203125,7.8125,12
2021-06-17 16:08:53.668207,0.9935302734375,0.034423828125,0.1180419921875,-2.5634765625,-10.25390625,4.69970703125,13
2021-06-17 16:08:53.731305,0.9539794921875,0.0479736328125,0.1256103515625,-7.38525390625,-12.0849609375,2.197265625,13
2021-06-17 16:08:53.794132,0.8670654296875,0.0753173828125,0.10693359375,-14.22119140625,-16.9677734375,2.3193359375,12
2021-06-17 16:08:53.887290,1.064697265625,0.1456298828125,0.0224609375,-23.86474609375,-35.7666015625,-4.7607421875,13
2021-06-17 16:08:53.950139,1.0908203125,0.1534423828125,-0.0364990234375,-30.82275390625,-38.14697265625,-0.8544921875,12
2021-06-17 16:08:54.013690,1.1748046875,0.17431640625,0.026123046875,-21.17919921875,-29.84619140625,3.72314453125,13
2021-06-17 16:08:54.076331,1.02587890625,0.181884765625,0.0435791015625,-17.333984375,-20.3857421875,1.953125,13
2021-06-17 16:08:54.138795,0.955810546875,0.1722412109375,0.06201171875,-14.70947265625,-18.00537109375,4.69970703125,12
2021-06-17 16:08:54.215452,0.9150390625,0.1578369140625,0.022705078125,-13.18359375,-21.1181640625,5.43212890625,13
2021-06-17 16:08:54.277970,0.9278564453125,0.1583251953125,-0.0340576171875,-12.14599609375,-28.564453125,4.7607421875,13
2021-06-17 16:08:54.348287,0.9425048828125,0.167236328125,-0.112548828125,-11.8408203125,-36.4990234375,4.57763671875,13
2021-06-17 16:08:54.410662,0.9383544921875,0.197021484375,-0.179443359375,-12.0849609375,-49.6826171875,11.1083984375,13
2021-06-17 16:08:54.473205,0.9716796875,0.205322265625,-0.231201171875,-4.7607421875,-55.35888671875,22.0947265625,13
2021-06-17 16:08:54.535699,0.9376220703125,0.194091796875,-0.243408203125,6.89697265625,-43.212890625,25.08544921875,13
2021-06-17 16:08:54.599497,1.0382080078125,0.1341552734375,-0.265869140625,14.22119140625,-31.43310546875,25.634765625,13
2021-06-17 16:08:54.661979,0.977783203125,0.076171875,-0.2791748046875,19.22607421875,-12.5732421875,20.5078125,13
2021-06-17 16:08:54.724432,1.0634765625,0.012939453125,-0.245849609375,25.45166015625,-1.0986328125,22.4609375,12
2021-06-17 16:08:54.786916,0.96728515625,-0.0870361328125,-0.209228515625,30.029296875,2.0751953125,25.146484375,13
2021-06-17 16:08:54.849399,1.0008544921875,-0.2061767578125,-0.1829833984375,34.36279296875,-5.37109375,32.16552734375,12
2021-06-17 16:08:54.911941,1.082763671875,-0.28564453125,-0.179931640625,38.26904296875,-17.63916015625,35.400390625,13
2021-06-17 16:08:54.974339,0.8739013671875,-0.315673828125,-0.1768798828125,41.259765625,-25.32958984375,25.390625,13
2021-06-17 16:08:55.038586,0.8868408203125,-0.261474609375,-0.1624755859375,38.14697265625,-25.20751953125,27.34375,13
2021-06-17 16:08:55.101121,0.9263916015625,-0.3336181640625,-0.149169921875,25.69580078125,-31.982421875,21.91162109375,12
2021-06-17 16:08:55.163586,0.966796875,-0.341552734375,-0.2032470703125,20.01953125,-35.94970703125,12.39013671875,13
2021-06-17 16:08:55.227595,0.9248046875,-0.2830810546875,-0.2657470703125,13.61083984375,-37.2314453125,6.04248046875,13
2021-06-17 16:08:55.290224,0.9591064453125,-0.3099365234375,-0.2528076171875,18.4326171875,-37.9638671875,5.06591796875,12
2021-06-17 16:08:55.352685,0.9327392578125,-0.319580078125,-0.250732421875,21.240234375,-35.94970703125,4.0283203125,13
2021-06-17 16:08:55.415112,0.8868408203125,-0.3216552734375,-0.2193603515625,21.6064453125,-33.8134765625,4.39453125,13
2021-06-17 16:08:55.477671,0.847900390625,-0.29638671875,-0.209228515625,18.310546875,-28.80859375,5.2490234375,13
2021-06-17 16:08:55.540067,0.8636474609375,-0.313720703125,-0.2105712890625,14.2822265625,-25.7568359375,6.4697265625,13
2021-06-17 16:08:55.602625,0.8328857421875,-0.341552734375,-0.2166748046875,7.75146484375,-23.92578125,6.40869140625,13
2021-06-17 16:08:55.664857,0.8363037109375,-0.327392578125,-0.2254638671875,-0.06103515625,-24.84130859375,5.92041015625,13
2021-06-17 16:08:55.727589,0.91162109375,-0.3226318359375,-0.235595703125,-6.9580078125,-29.4189453125,5.43212890625,12
2021-06-17 16:08:55.790060,0.9537353515625,-0.33056640625,-0.292724609375,-12.3291015625,-39.1845703125,5.7373046875,13
2021-06-17 16:08:55.852560,0.961181640625,-0.313232421875,-0.335693359375,-21.17919921875,-43.5791015625,5.2490234375,12
2021-06-17 16:08:55.915026,0.9747314453125,-0.3309326171875,-0.3914794921875,-24.96337890625,-39.4287109375,4.82177734375,13
2021-06-17 16:08:55.977283,0.8583984375,-0.3194580078125,-0.481689453125,-29.23583984375,-37.65869140625,2.74658203125,13
2021-06-17 16:08:56.040563,0.9051513671875,-0.245361328125,-0.5345458984375,-34.48486328125,-30.8837890625,6.591796875,13
2021-06-17 16:08:56.115165,0.8802490234375,-0.2109375,-0.61181640625,-32.1044921875,-28.3203125,7.01904296875,12
2021-06-17 16:08:56.184704,0.8671875,-0.1556396484375,-0.6978759765625,-26.4892578125,-28.9306640625,5.43212890625,13
2021-06-17 16:08:56.248772,0.7822265625,-0.227783203125,-0.7293701171875,-11.3525390625,-28.01513671875,14.58740234375,13
2021-06-17 16:08:56.311330,0.65283203125,-0.271728515625,-0.6993408203125,-5.67626953125,-19.10400390625,17.51708984375,12
2021-06-17 16:08:56.373707,0.588623046875,-0.2650146484375,-0.70166015625,-7.9345703125,-11.41357421875,21.42333984375,12
2021-06-17 16:08:56.437805,0.620361328125,-0.25439453125,-0.7025146484375,-7.4462890625,-9.21630859375,23.193359375,13
2021-06-17 16:08:56.500506,0.68212890625,-0.26513671875,-0.702392578125,-8.6669921875,-11.474609375,19.775390625,12
2021-06-17 16:08:56.563013,0.7012939453125,-0.27783203125,-0.685302734375,-10.92529296875,-14.7705078125,16.90673828125,13
2021-06-17 16:08:56.627079,0.677490234375,-0.2894287109375,-0.655517578125,-14.5263671875,-13.5498046875,15.93017578125,13
2021-06-17 16:08:56.689357,0.6868896484375,-0.2911376953125,-0.644287109375,-16.7236328125,-11.71875,15.0146484375,13
2021-06-17 16:08:56.752048,0.679443359375,-0.2890625,-0.6490478515625,-18.49365234375,-12.51220703125,12.14599609375,12
2021-06-17 16:08:56.814531,0.68017578125,-0.256103515625,-0.6527099609375,-19.22607421875,-13.18359375,5.79833984375,13
2021-06-17 16:08:56.877013,0.6854248046875,-0.2188720703125,-0.6614990234375,-16.78466796875,-12.3291015625,0.1220703125,13
2021-06-17 16:08:56.940893,0.6947021484375,-0.1844482421875,-0.683349609375,-12.14599609375,-10.55908203125,-5.31005859375,12
2021-06-17 16:08:57.003487,0.686767578125,-0.1632080078125,-0.7027587890625,-5.55419921875,-4.57763671875,-12.8173828125,13
2021-06-17 16:08:57.065851,0.6898193359375,-0.1673583984375,-0.6986083984375,1.220703125,-1.40380859375,-14.95361328125,13
2021-06-17 16:08:57.129581,0.7099609375,-0.1473388671875,-0.6806640625,13.12255859375,4.7607421875,-14.0380859375,13
2021-06-17 16:08:57.192107,0.7022705078125,-0.166748046875,-0.6593017578125,16.7236328125,14.09912109375,-17.51708984375,13
2021-06-17 16:08:57.254568,0.8905029296875,-0.166015625,-0.6290283203125,27.34375,22.27783203125,-22.03369140625,13
2021-06-17 16:08:57.317057,0.9595947265625,-0.2640380859375,-0.599365234375,41.50390625,20.20263671875,-25.146484375,13
2021-06-17 16:08:57.379493,0.91259765625,-0.4202880859375,-0.536376953125,43.27392578125,15.625,-21.78955078125,12
2021-06-17 16:08:57.441795,0.7593994140625,-0.4478759765625,-0.53662109375,34.912109375,2.197265625,-12.75634765625,13
2021-06-17 16:08:57.504318,0.8360595703125,-0.3758544921875,-0.57666015625,31.55517578125,-16.7236328125,-6.34765625,13
2021-06-17 16:08:57.598238,0.753173828125,-0.382568359375,-0.6297607421875,36.80419921875,-41.50390625,-9.82666015625,12
2021-06-17 16:08:57.660752,0.732666015625,-0.41015625,-0.587890625,37.353515625,-56.57958984375,-0.3662109375,13
2021-06-17 16:08:57.723261,0.608642578125,-0.3658447265625,-0.59765625,31.79931640625,-48.2177734375,-4.94384765625,13
2021-06-17 16:08:57.787268,0.6300048828125,-0.3291015625,-0.5316162109375,15.44189453125,-55.17578125,-8.36181640625,13
2021-06-17 16:08:57.849995,0.642822265625,-0.3355712890625,-0.5052490234375,18.06640625,-43.76220703125,-12.26806640625,13
2021-06-17 16:08:57.912467,0.68896484375,-0.3394775390625,-0.5390625,17.27294921875,-25.7568359375,-15.380859375,12
2021-06-17 16:08:57.976011,0.74072265625,-0.36279296875,-0.5611572265625,10.986328125,-13.916015625,-11.1083984375,12
2021-06-17 16:08:58.045463,0.7567138671875,-0.3421630859375,-0.5574951171875,1.64794921875,-6.16455078125,-5.615234375,13
2021-06-17 16:08:58.107888,0.7469482421875,-0.326171875,-0.5474853515625,-2.99072265625,-6.4697265625,0.3662109375,12
2021-06-17 16:08:58.170396,0.717529296875,-0.3173828125,-0.5537109375,-7.99560546875,-11.8408203125,3.2958984375,13
2021-06-17 16:08:58.232806,0.6998291015625,-0.310791015625,-0.5645751953125,-11.77978515625,-17.2119140625,7.4462890625,13
2021-06-17 16:08:58.296703,0.6964111328125,-0.306640625,-0.566650390625,-15.5029296875,-20.93505859375,9.70458984375,13
2021-06-17 16:08:58.359254,0.7149658203125,-0.34814453125,-0.607666015625,-13.85498046875,-24.5361328125,12.8173828125,13
2021-06-17 16:08:58.421698,0.70556640625,-0.349853515625,-0.6171875,-18.49365234375,-23.74267578125,13.12255859375,13
2021-06-17 16:08:58.484255,0.7177734375,-0.3409423828125,-0.6475830078125,-26.85546875,-21.66748046875,15.2587890625,13
2021-06-17 16:08:58.546644,0.827392578125,-0.3084716796875,-0.716064453125,-31.005859375,-21.17919921875,18.9208984375,12
2021-06-17 16:08:58.609151,0.80126953125,-0.3057861328125,-0.791015625,-33.935546875,-19.4091796875,18.4326171875,12
2021-06-17 16:08:58.671422,0.68017578125,-0.235107421875,-0.8939208984375,-38.75732421875,-13.7939453125,21.05712890625,12
2021-06-17 16:08:58.734120,0.6419677734375,-0.2459716796875,-0.96875,-26.9775390625,-23.37646484375,24.7802734375,13
2021-06-17 16:08:58.796608,0.4866943359375,-0.3275146484375,-0.9271240234375,-10.009765625,-21.54541015625,27.7099609375,13
2021-06-17 16:08:58.859100,0.3834228515625,-0.2835693359375,-0.84619140625,-13.97705078125,-5.859375,23.86474609375,13
2021-06-17 16:08:58.921555,0.4149169921875,-0.258056640625,-0.8388671875,-11.962890625,0.30517578125,27.587890625,13
2021-06-17 16:08:58.984123,0.4783935546875,-0.2730712890625,-0.8043212890625,-15.869140625,4.45556640625,26.2451171875,13
2021-06-17 16:08:59.046587,0.5035400390625,-0.28076171875,-0.779296875,-12.26806640625,2.01416015625,24.4140625,13
2021-06-17 16:08:59.110275,0.4775390625,-0.3135986328125,-0.7562255859375,-6.40869140625,-1.28173828125,21.30126953125,13
2021-06-17 16:08:59.179164,0.501708984375,-0.312744140625,-0.759765625,-8.48388671875,-3.96728515625,17.02880859375,12
2021-06-17 16:08:59.241561,0.51171875,-0.2960205078125,-0.76220703125,-6.28662109375,-4.638671875,10.92529296875,12
2021-06-17 16:08:59.304254,0.537109375,-0.2862548828125,-0.74853515625,-1.8310546875,-5.18798828125,2.62451171875,13
