arrival_time,acc_x,acc_y,acc_z,rot_x,rot_y,rot_z,ir_dist
2021-06-17 16:03:06.505064,1.0030517578125,-0.0885009765625,0.0001220703125,0.6103515625,-3.662109375,-0.91552734375,12
2021-06-17 16:03:06.581758,1.009765625,-0.0947265625,-0.0045166015625,0.8544921875,-3.23486328125,-1.0986328125,13
2021-06-17 16:03:06.651178,1.0018310546875,-0.084716796875,-0.00634765625,-1.0986328125,-2.9296875,-1.03759765625,12
2021-06-17 16:03:06.729036,1.0052490234375,-0.087158203125,-0.0157470703125,0.79345703125,-3.662109375,-1.220703125,12
2021-06-17 16:03:06.791457,1.0013427734375,-0.086669921875,-0.01513671875,0.1220703125,-3.41796875,-1.220703125,12
2021-06-17 16:03:06.854003,1.0035400390625,-0.087158203125,-0.001708984375,-0.8544921875,-4.39453125,-1.3427734375,13
2021-06-17 16:03:06.917912,1.0023193359375,-0.0850830078125,-0.0028076171875,-0.9765625,-3.47900390625,-1.3427734375,12
2021-06-17 16:03:06.980431,1.0089111328125,-0.0859375,-0.0050048828125,-0.244140625,-3.662109375,-1.40380859375,12
2021-06-17 16:03:07.042787,1.0,-0.0870361328125,-0.0006103515625,-0.1220703125,-3.84521484375,-1.220703125,12
2021-06-17 16:03:07.105303,1.0093994140625,-0.09326171875,-0.0064697265625,0.1220703125,-3.11279296875,-1.220703125,13
2021-06-17 16:03:07.167649,1.0,-0.078125,-0.0067138671875,-0.3662109375,-3.35693359375,-1.28173828125,12
2021-06-17 16:03:07.230348,1.0098876953125,-0.0950927734375,-0.005126953125,-0.244140625,-3.11279296875,-1.220703125,12
2021-06-17 16:03:07.292799,0.997802734375,-0.0770263671875,-0.002197265625,-0.91552734375,-2.99072265625,-1.15966796875,12
2021-06-17 16:03:07.355325,1.0064697265625,-0.0799560546875,-0.0009765625,-0.42724609375,-2.74658203125,-1.220703125,13
2021-06-17 16:03:07.420485,1.0013427734375,-0.0848388671875,-0.015380859375,-0.244140625,-2.25830078125,-1.28173828125,12
2021-06-17 16:03:07.482911,1.0079345703125,-0.0751953125,0.0001220703125,-2.3193359375,-2.74658203125,-1.40380859375,12
2021-06-17 16:03:07.545190,1.002685546875,-0.083740234375,0.001953125,-1.03759765625,-2.74658203125,-1.52587890625,12
2021-06-17 16:03:07.607784,1.010986328125,-0.0772705078125,-0.0025634765625,-1.15966796875,-3.173828125,-1.52587890625,12
2021-06-17 16:03:07.671696,1.0018310546875,-0.078369140625,0.0052490234375,-0.79345703125,-3.72314453125,-1.5869140625,12
2021-06-17 16:03:07.734123,1.006591796875,-0.0771484375,-0.005615234375,-1.03759765625,-2.9296875,-1.5869140625,12
2021-06-17 16:03:07.827902,1.0025634765625,-0.0782470703125,0.000244140625,-2.62451171875,-2.99072265625,-1.46484375,12
2021-06-17 16:03:07.890378,1.00927734375,-0.0760498046875,0.00439453125,-2.8076171875,-2.62451171875,-1.28173828125,12
2021-06-17 16:03:07.952722,1.002197265625,-0.070556640625,0.00439453125,-1.708984375,-3.2958984375,-1.3427734375,12
2021-06-17 16:03:08.024495,1.008544921875,-0.0697021484375,0.0045166015625,-1.708984375,-3.23486328125,-1.15966796875,13
2021-06-17 16:03:08.086727,1.001220703125,-0.076904296875,0.00439453125,-1.28173828125,-3.7841796875,-1.3427734375,13
2021-06-17 16:03:08.149240,0.9947509765625,-0.07177734375,0.0111083984375,-0.79345703125,-4.0283203125,-0.79345703125,12
2021-06-17 16:03:08.212825,1.0108642578125,-0.0982666015625,0.005126953125,-0.30517578125,-3.23486328125,-0.1220703125,12
2021-06-17 16:03:08.275314,1.01513671875,-0.090576171875,0.00927734375,-2.38037109375,-2.197265625,0.06103515625,13
2021-06-17 16:03:08.337799,1.0272216796875,-0.094970703125,0.020751953125,-1.220703125,-4.7607421875,-0.244140625,12
2021-06-17 16:03:08.400257,1.0274658203125,-0.1217041015625,0.0220947265625,2.50244140625,-6.65283203125,-0.18310546875,12
2021-06-17 16:03:08.462783,1.0263671875,-0.1220703125,0.0089111328125,4.45556640625,-5.55419921875,0.91552734375,12
2021-06-17 16:03:08.525341,1.014404296875,-0.109375,0.0067138671875,4.2724609375,-6.9580078125,0.79345703125,12
2021-06-17 16:03:08.587926,0.96142578125,-0.1134033203125,0.017578125,-0.18310546875,-9.521484375,0.3662109375,12
2021-06-17 16:03:08.681650,0.96728515625,-0.00537109375,0.043212890625,-9.21630859375,-16.05224609375,-2.62451171875,12
2021-06-17 16:03:08.743932,1.091064453125,-0.0125732421875,0.1197509765625,-9.70458984375,-8.11767578125,-6.53076171875,13
2021-06-17 16:03:08.808318,1.1165771484375,-0.096923828125,0.0543212890625,-1.03759765625,-19.95849609375,-5.43212890625,12
2021-06-17 16:03:08.870720,1.01953125,-0.01953125,0.0963134765625,-21.66748046875,-6.16455078125,-0.54931640625,12
2021-06-17 16:03:08.964593,0.9462890625,0.0350341796875,0.0338134765625,-2.86865234375,-9.3994140625,-0.244140625,12
2021-06-17 16:03:09.028583,0.91552734375,0.0208740234375,0.052978515625,7.75146484375,-12.14599609375,-1.64794921875,12
2021-06-17 16:03:09.090813,0.9267578125,0.0458984375,0.03076171875,15.5029296875,-15.19775390625,-2.38037109375,12
2021-06-17 16:03:09.153546,0.9501953125,0.040771484375,0.032958984375,10.92529296875,-18.9208984375,-0.244140625,12
2021-06-17 16:03:09.216007,0.9642333984375,-0.00244140625,0.07568359375,12.0849609375,-15.07568359375,0.79345703125,13
2021-06-17 16:03:09.309711,0.98779296875,0.0098876953125,0.0762939453125,15.44189453125,-8.544921875,3.84521484375,12
2021-06-17 16:03:09.372247,1.0125732421875,-0.0205078125,0.071533203125,22.216796875,1.953125,8.544921875,12
2021-06-17 16:03:09.443369,1.121337890625,-0.0423583984375,0.025634765625,20.5078125,11.71875,11.1083984375,12
2021-06-17 16:03:09.505799,1.1053466796875,-0.090576171875,-0.001953125,25.87890625,8.48388671875,11.3525390625,12
2021-06-17 16:03:09.569878,1.072265625,-0.128173828125,0.0009765625,40.83251953125,6.77490234375,11.474609375,13
2021-06-17 16:03:09.632412,0.974365234375,-0.1551513671875,-0.08740234375,36.1328125,9.27734375,10.986328125,12
2021-06-17 16:03:09.694864,1.0006103515625,-0.091552734375,-0.0892333984375,15.44189453125,10.3759765625,7.62939453125,13
2021-06-17 16:03:09.758748,1.0408935546875,-0.1119384765625,-0.0504150390625,7.8125,12.0849609375,3.72314453125,12
2021-06-17 16:03:09.821310,0.9669189453125,-0.1695556640625,-0.046142578125,22.8271484375,-3.47900390625,2.86865234375,12
2021-06-17 16:03:09.883699,0.9693603515625,-0.202392578125,-0.0755615234375,36.376953125,-15.56396484375,7.14111328125,12
2021-06-17 16:03:09.946280,0.997802734375,-0.2269287109375,-0.0428466796875,33.447265625,-13.427734375,6.89697265625,12
2021-06-17 16:03:10.010912,0.98828125,-0.2427978515625,-0.0782470703125,17.02880859375,-7.01904296875,4.33349609375,12
2021-06-17 16:03:10.073419,1.05615234375,-0.290771484375,-0.0675048828125,-0.6103515625,-14.2822265625,1.220703125,12
2021-06-17 16:03:10.135661,1.05859375,-0.3216552734375,-0.02685546875,-4.638671875,-28.99169921875,3.60107421875,12
2021-06-17 16:03:10.198359,0.9984130859375,-0.2813720703125,0.0010986328125,-1.03759765625,-30.70068359375,4.2724609375,12
2021-06-17 16:03:10.260798,0.9468994140625,-0.2825927734375,0.004638671875,8.11767578125,-26.67236328125,6.4697265625,12
2021-06-17 16:03:10.323333,0.9241943359375,-0.2451171875,-0.035400390625,2.9296875,-31.55517578125,4.0283203125,12
2021-06-17 16:03:10.387317,0.9525146484375,-0.267333984375,-0.00390625,-1.64794921875,-37.2314453125,0.42724609375,12
2021-06-17 16:03:10.449791,0.9410400390625,-0.3441162109375,0.027587890625,3.35693359375,-45.83740234375,-2.13623046875,12
2021-06-17 16:03:10.512279,0.964599609375,-0.3406982421875,-0.0030517578125,-2.74658203125,-47.30224609375,-0.91552734375,13
2021-06-17 16:03:10.575972,0.974365234375,-0.2728271484375,-0.0732421875,1.220703125,-49.6826171875,0.732421875,12
2021-06-17 16:03:10.638752,0.9208984375,-0.3310546875,-0.028564453125,-28.564453125,-45.0439453125,-2.74658203125,12
2021-06-17 16:03:10.701198,0.8909912109375,-0.3328857421875,-0.09375,-37.04833984375,-19.95849609375,-4.638671875,12
2021-06-17 16:03:10.765211,0.8709716796875,-0.2928466796875,-0.1221923828125,-47.607421875,-10.25390625,-7.4462890625,13
2021-06-17 16:03:10.827668,1.1131591796875,-0.2420654296875,-0.239013671875,-46.7529296875,4.150390625,-8.1787109375,12
2021-06-17 16:03:10.890183,1.292724609375,-0.0938720703125,-0.302734375,-50.47607421875,11.474609375,-4.69970703125,12
2021-06-17 16:03:10.952437,1.170166015625,0.3236083984375,-0.39599609375,-25.7568359375,14.22119140625,-5.55419921875,13
2021-06-17 16:03:11.015167,0.9150390625,-0.0216064453125,-0.3184814453125,-27.89306640625,-7.99560546875,-10.3759765625,13
2021-06-17 16:03:11.077533,0.6668701171875,-0.138671875,-0.326904296875,-32.2265625,3.7841796875,-1.89208984375,12
2021-06-17 16:03:11.140164,0.7655029296875,-0.0306396484375,-0.296630859375,-29.23583984375,9.58251953125,3.23486328125,12
2021-06-17 16:03:11.212770,0.9818115234375,0.1099853515625,-0.3310546875,-33.0810546875,17.63916015625,5.06591796875,12
2021-06-17 16:03:11.275210,1.0775146484375,0.1240234375,-0.3302001953125,-15.2587890625,2.197265625,2.25830078125,12
2021-06-17 16:03:11.337739,1.0657958984375,0.1031494140625,-0.219482421875,-1.708984375,-16.05224609375,-2.86865234375,12
2021-06-17 16:03:11.400269,0.9827880859375,0.0262451171875,-0.2344970703125,-14.892578125,0.732421875,-1.5869140625,12
2021-06-17 16:03:11.462737,0.916748046875,-0.0048828125,-0.172607421875,-7.50732421875,-7.62939453125,-0.67138671875,13
2021-06-17 16:03:11.527476,0.8843994140625,0.0130615234375,-0.171142578125,-9.94873046875,1.89208984375,-0.06103515625,12
2021-06-17 16:03:11.589741,0.899658203125,0.0286865234375,-0.1895751953125,-0.06103515625,-3.23486328125,-1.708984375,12
2021-06-17 16:03:11.652497,0.9190673828125,0.022705078125,-0.154296875,1.46484375,-3.0517578125,-2.13623046875,12
2021-06-17 16:03:11.716459,0.970947265625,0.0430908203125,-0.1463623046875,15.625,-2.9296875,1.40380859375,13
2021-06-17 16:03:11.810174,0.998291015625,0.011962890625,-0.139892578125,25.57373046875,-6.40869140625,2.50244140625,12
2021-06-17 16:03:11.872704,1.003662109375,-0.0048828125,-0.126953125,27.7099609375,-0.42724609375,3.84521484375,12
2021-06-17 16:03:11.935159,1.1151123046875,0.00048828125,-0.183837890625,23.01025390625,4.150390625,4.0283203125,12
2021-06-17 16:03:12.003325,1.0067138671875,-0.0750732421875,-0.1383056640625,38.87939453125,-12.63427734375,1.953125,12
2021-06-17 16:03:12.065774,0.9393310546875,-0.0826416015625,-0.1705322265625,50.72021484375,-15.07568359375,2.25830078125,12
2021-06-17 16:03:12.128263,0.9459228515625,-0.040283203125,-0.281005859375,58.77685546875,-5.0048828125,1.03759765625,12
2021-06-17 16:03:12.191809,1.0107421875,-0.10546875,-0.2669677734375,52.79541015625,-4.8828125,-4.0283203125,12
2021-06-17 16:03:12.254347,0.9403076171875,-0.190673828125,-0.2325439453125,51.7578125,-10.55908203125,-5.2490234375,12
2021-06-17 16:03:12.316818,1.041259765625,-0.3133544921875,-0.21435546875,50.9033203125,-11.8408203125,-5.0048828125,12
2021-06-17 16:03:12.379312,1.04736328125,-0.287353515625,-0.1754150390625,41.07666015625,-17.08984375,-6.103515625,12
2021-06-17 16:03:12.442903,0.936279296875,-0.2772216796875,-0.18701171875,38.6962890625,-15.2587890625,-6.34765625,12
2021-06-17 16:03:12.506040,0.878662109375,-0.2843017578125,-0.1651611328125,28.25927734375,-10.80322265625,-6.2255859375,12
2021-06-17 16:03:12.568306,0.8248291015625,-0.292236328125,-0.15185546875,16.41845703125,-5.31005859375,-3.7841796875,12
2021-06-17 16:03:12.632546,0.7996826171875,-0.299072265625,-0.1619873046875,8.60595703125,-3.72314453125,-1.0986328125,12
2021-06-17 16:03:12.694849,0.819091796875,-0.3104248046875,-0.1685791015625,5.43212890625,-10.1318359375,-2.685546875,13
2021-06-17 16:03:12.757559,0.8299560546875,-0.36376953125,-0.1102294921875,-11.8408203125,-3.60107421875,-5.31005859375,13
2021-06-17 16:03:12.820204,0.911865234375,-0.33837890625,-0.1300048828125,-15.93017578125,2.86865234375,-6.2255859375,12
2021-06-17 16:03:12.885595,1.0997314453125,-0.2982177734375,-0.1915283203125,-33.3251953125,8.30078125,-12.939453125,12
2021-06-17 16:03:12.948234,1.114990234375,-0.355224609375,-0.2021484375,-42.17529296875,-0.54931640625,-14.404296875,12
2021-06-17 16:03:13.010753,1.0802001953125,-0.2611083984375,-0.1175537109375,-46.38671875,-7.8125,-8.85009765625,12
2021-06-17 16:03:13.073271,1.0950927734375,-0.17333984375,-0.212158203125,-49.62158203125,9.82666015625,-2.01416015625,12
2021-06-17 16:03:13.136865,1.1954345703125,-0.0107421875,-0.231689453125,-48.88916015625,21.05712890625,2.197265625,12
2021-06-17 16:03:13.199193,1.13623046875,0.1068115234375,-0.2393798828125,-29.84619140625,13.3056640625,2.25830078125,12
2021-06-17 16:03:13.261738,0.936279296875,-0.0601806640625,-0.2689208984375,-29.23583984375,1.0986328125,-0.1220703125,12
2021-06-17 16:03:13.324299,0.932373046875,-0.134033203125,-0.279541015625,-40.95458984375,3.7841796875,5.0048828125,12
2021-06-17 16:03:13.386748,0.9237060546875,0.01904296875,-0.2589111328125,-48.33984375,10.19287109375,7.2021484375,12
2021-06-17 16:03:13.449046,1.0172119140625,0.0308837890625,-0.1597900390625,-28.99169921875,10.009765625,9.27734375,12
2021-06-17 16:03:13.511696,1.0146484375,0.1566162109375,-0.22314453125,-5.43212890625,-0.54931640625,11.5966796875,13
2021-06-17 16:03:13.573979,0.962890625,0.1339111328125,-0.0394287109375,-14.34326171875,13.36669921875,8.6669921875,12
2021-06-17 16:03:13.636732,0.9176025390625,0.06396484375,-0.3560791015625,-8.72802734375,-7.6904296875,1.40380859375,12
2021-06-17 16:03:13.698994,0.9169921875,0.0277099609375,-0.0936279296875,-8.6669921875,-7.8125,2.38037109375,12
2021-06-17 16:03:13.761651,0.9527587890625,0.0628662109375,-0.1107177734375,15.19775390625,-21.8505859375,2.74658203125,12
2021-06-17 16:03:13.824128,0.96044921875,0.084228515625,-0.15966796875,12.14599609375,-13.427734375,2.8076171875,12
2021-06-17 16:03:13.886637,0.9581298828125,0.051025390625,-0.0556640625,15.5029296875,-17.08984375,2.0751953125,12
2021-06-17 16:03:13.949120,0.9404296875,0.0091552734375,-0.109130859375,22.94921875,-18.9208984375,5.67626953125,12
2021-06-17 16:03:14.019317,0.94189453125,-0.0147705078125,-0.0777587890625,18.6767578125,-13.00048828125,8.9111328125,12
2021-06-17 16:03:14.112793,0.9808349609375,-0.04248046875,-0.09765625,30.029296875,-9.21630859375,9.09423828125,12
2021-06-17 16:03:14.175279,1.0303955078125,-0.0106201171875,-0.1376953125,29.47998046875,-7.080078125,8.85009765625,12
2021-06-17 16:03:14.240962,0.9947509765625,-0.0509033203125,-0.1131591796875,35.33935546875,-11.5966796875,8.6669921875,12
2021-06-17 16:03:14.334630,0.96435546875,-0.054931640625,-0.125732421875,41.68701171875,-1.03759765625,10.19287109375,12
2021-06-17 16:03:14.397244,0.9898681640625,-0.10498046875,-0.158447265625,43.212890625,2.685546875,9.33837890625,12
2021-06-17 16:03:14.461081,1.1607666015625,-0.246337890625,-0.2059326171875,41.1376953125,4.21142578125,6.65283203125,12
