arrival_time,acc_x,acc_y,acc_z,rot_x,rot_y,rot_z,ir_dist
2021-06-17 12:15:15.949396,0.8834228515625,0.490966796875,0.1273193359375,-1.15966796875,-4.82177734375,-1.15966796875,63
2021-06-17 12:15:16.043309,0.8770751953125,0.495849609375,0.128173828125,-1.953125,-5.55419921875,-1.03759765625,68
2021-06-17 12:15:16.104965,0.8714599609375,0.4986572265625,0.130859375,-2.13623046875,-5.43212890625,-0.732421875,65
2021-06-17 12:15:16.167677,0.8768310546875,0.49560546875,0.1361083984375,-1.40380859375,-5.859375,-0.9765625,73
2021-06-17 12:15:16.230873,0.876708984375,0.504150390625,0.1270751953125,-1.77001953125,-5.79833984375,-0.9765625,70
2021-06-17 12:15:16.293376,0.8760986328125,0.4993896484375,0.132080078125,-0.30517578125,-5.79833984375,-0.8544921875,69
2021-06-17 12:15:16.354975,0.880615234375,0.49560546875,0.12841796875,-0.91552734375,-6.28662109375,-1.40380859375,69
2021-06-17 12:15:16.418074,0.877197265625,0.4947509765625,0.1278076171875,-1.52587890625,-5.859375,-1.220703125,68
2021-06-17 12:15:16.481037,0.881591796875,0.4951171875,0.126953125,0.42724609375,-5.79833984375,-1.15966796875,73
2021-06-17 12:15:16.543215,0.87646484375,0.4954833984375,0.1260986328125,0.06103515625,-6.28662109375,-0.8544921875,72
2021-06-17 12:15:16.606388,0.87646484375,0.497314453125,0.1241455078125,-0.732421875,-6.2255859375,-0.42724609375,69
2021-06-17 12:15:16.668462,0.8824462890625,0.495361328125,0.1197509765625,-0.06103515625,-6.103515625,-0.9765625,66
2021-06-17 12:15:16.731809,0.88330078125,0.495849609375,0.1265869140625,-1.03759765625,-6.28662109375,-1.40380859375,67
2021-06-17 12:15:16.794526,0.881103515625,0.4947509765625,0.125244140625,-1.46484375,-6.591796875,-1.40380859375,68
2021-06-17 12:15:16.856669,0.87744140625,0.5006103515625,0.1297607421875,-0.91552734375,-6.65283203125,-1.46484375,65
2021-06-17 12:15:16.919144,0.8818359375,0.5006103515625,0.13037109375,-0.54931640625,-6.89697265625,-1.77001953125,74
2021-06-17 12:15:16.981940,0.8804931640625,0.5048828125,0.123291015625,0.244140625,-6.9580078125,-1.89208984375,67
2021-06-17 12:15:17.043207,0.8814697265625,0.5035400390625,0.12158203125,0.1220703125,-6.7138671875,-1.953125,63
2021-06-17 12:15:17.106567,0.8734130859375,0.495361328125,0.1231689453125,0.732421875,-7.38525390625,-2.74658203125,69
2021-06-17 12:15:17.169856,0.878173828125,0.4998779296875,0.1256103515625,-2.0751953125,-7.38525390625,-4.150390625,69
2021-06-17 12:15:17.232718,0.8712158203125,0.505615234375,0.123291015625,-0.9765625,-7.2021484375,-3.35693359375,59
2021-06-17 12:15:17.295874,0.865966796875,0.50146484375,0.1260986328125,0.244140625,-7.50732421875,-2.685546875,62
2021-06-17 12:15:17.357774,0.867919921875,0.5009765625,0.1202392578125,1.3427734375,-7.87353515625,-2.197265625,61
2021-06-17 12:15:17.420019,0.8837890625,0.495361328125,0.119873046875,0.8544921875,-7.99560546875,-3.23486328125,58
2021-06-17 12:15:17.482762,0.8831787109375,0.50732421875,0.1138916015625,0.0,-7.2021484375,-2.86865234375,58
2021-06-17 12:15:17.544452,0.8743896484375,0.50830078125,0.1138916015625,-0.67138671875,-7.01904296875,-2.9296875,53
2021-06-17 12:15:17.606556,0.868896484375,0.497314453125,0.1075439453125,-0.30517578125,-6.7138671875,-4.150390625,58
2021-06-17 12:15:17.669046,0.8736572265625,0.49072265625,0.1082763671875,-1.52587890625,-6.7138671875,-4.8828125,62
2021-06-17 12:15:17.730777,0.885009765625,0.47509765625,0.1112060546875,-3.41796875,-7.26318359375,-5.7373046875,58
2021-06-17 12:15:17.793001,0.8817138671875,0.46728515625,0.120361328125,-3.23486328125,-8.23974609375,-5.859375,65
2021-06-17 12:15:17.856171,0.8770751953125,0.452392578125,0.1180419921875,-2.74658203125,-8.85009765625,-8.056640625,64
2021-06-17 12:15:17.918127,0.82861328125,0.451171875,0.134521484375,-7.75146484375,-9.27734375,-15.13671875,62
2021-06-17 12:15:17.980543,0.7752685546875,0.420166015625,0.1353759765625,0.30517578125,-9.46044921875,-21.30126953125,65
2021-06-17 12:15:18.043837,0.791015625,0.4324951171875,0.120361328125,0.48828125,-10.7421875,-33.203125,72
2021-06-17 12:15:18.106385,0.828857421875,0.4259033203125,0.1278076171875,5.43212890625,-14.6484375,-41.748046875,84
2021-06-17 12:15:18.169113,0.753173828125,0.5257568359375,0.090576171875,6.2255859375,-16.11328125,-51.1474609375,99
2021-06-17 12:15:18.233293,0.550048828125,0.6173095703125,-0.0364990234375,2.9296875,-14.16015625,-41.1376953125,88
2021-06-17 12:15:18.296238,0.6055908203125,0.6639404296875,-0.043212890625,-12.02392578125,-13.5498046875,-39.4287109375,87
2021-06-17 12:15:18.358588,0.7327880859375,0.5859375,0.0230712890625,-32.65380859375,-32.77587890625,-41.8701171875,99
2021-06-17 12:15:18.422609,0.718505859375,0.567626953125,0.03759765625,-34.66796875,-42.236328125,-47.119140625,163
2021-06-17 12:15:18.485184,0.6563720703125,0.788330078125,0.066162109375,-42.90771484375,-35.09521484375,-32.5927734375,226
2021-06-17 12:15:18.548356,0.624755859375,0.872314453125,0.1614990234375,-35.5224609375,-31.6162109375,-12.6953125,58
2021-06-17 12:15:18.611359,0.658447265625,0.915771484375,0.21337890625,-19.53125,-26.30615234375,-18.00537109375,46
2021-06-17 12:15:18.673829,0.683349609375,1.0845947265625,0.160400390625,6.103515625,-6.28662109375,-18.06640625,46
2021-06-17 12:15:18.737070,0.772216796875,1.0855712890625,0.091552734375,25.81787109375,-0.18310546875,-10.80322265625,46
2021-06-17 12:15:18.799653,0.7257080078125,1.046875,0.038818359375,35.82763671875,-12.63427734375,-15.68603515625,52
2021-06-17 12:15:18.862762,0.73828125,0.9764404296875,-0.0067138671875,28.13720703125,-26.0009765625,-23.0712890625,151
2021-06-17 12:15:18.957257,0.6214599609375,0.9617919921875,-0.1689453125,13.427734375,-75.25634765625,-45.10498046875,192
2021-06-17 12:15:19.019859,0.5283203125,0.9552001953125,-0.175048828125,6.34765625,-83.31298828125,-52.55126953125,187
2021-06-17 12:15:19.083205,0.4332275390625,1.00048828125,-0.185302734375,23.4375,-85.02197265625,-71.96044921875,181
2021-06-17 12:15:19.176596,0.27294921875,0.9146728515625,-0.243408203125,56.640625,-61.6455078125,-64.88037109375,172
2021-06-17 12:15:19.238605,0.1925048828125,0.8790283203125,-0.2838134765625,49.37744140625,-58.77685546875,-61.09619140625,198
2021-06-17 12:15:19.302731,0.1409912109375,0.83837890625,-0.27587890625,50.048828125,-63.90380859375,-68.05419921875,77
2021-06-17 12:15:19.365673,-0.0145263671875,0.836181640625,-0.3388671875,36.4990234375,-67.56591796875,-50.6591796875,198
2021-06-17 12:15:19.428472,-0.0618896484375,0.797119140625,-0.3756103515625,34.48486328125,-54.443359375,-32.89794921875,110
2021-06-17 12:15:19.492168,-0.1085205078125,0.78662109375,-0.4371337890625,18.00537109375,-62.1337890625,-22.52197265625,176
2021-06-17 12:15:19.555770,-0.1805419921875,0.8870849609375,-0.5137939453125,23.681640625,-53.5888671875,-5.55419921875,151
2021-06-17 12:15:19.618346,-0.204833984375,0.70947265625,-0.5517578125,26.42822265625,-47.91259765625,-1.03759765625,168
2021-06-17 12:15:19.681049,-0.0347900390625,0.7552490234375,-0.5496826171875,24.5361328125,-57.7392578125,-6.28662109375,144
2021-06-17 12:15:19.743091,0.1419677734375,0.7412109375,-0.470947265625,24.35302734375,-68.359375,-12.3291015625,147
2021-06-17 12:15:19.806107,0.1729736328125,0.775634765625,-0.4718017578125,16.29638671875,-63.3544921875,1.77001953125,176
2021-06-17 12:15:19.868694,0.3994140625,0.7586669921875,-0.496337890625,-8.056640625,-56.09130859375,0.3662109375,181
2021-06-17 12:15:19.931752,0.3941650390625,0.8165283203125,-0.4698486328125,-2.44140625,-55.60302734375,11.474609375,232
2021-06-17 12:15:19.994292,0.327392578125,0.7332763671875,-0.497802734375,-2.3193359375,-39.4287109375,16.9677734375,159
2021-06-17 12:15:20.057268,0.30859375,0.72802734375,-0.5040283203125,-13.12255859375,-40.0390625,14.09912109375,110
2021-06-17 12:15:20.120731,0.2734375,0.76220703125,-0.5101318359375,-21.3623046875,-39.1845703125,10.7421875,114
2021-06-17 12:15:20.183532,0.2698974609375,0.7626953125,-0.5059814453125,-21.42333984375,-42.236328125,11.474609375,121
2021-06-17 12:15:20.245322,0.2197265625,0.789306640625,-0.46484375,-5.79833984375,-38.2080078125,12.39013671875,104
2021-06-17 12:15:20.307415,0.214599609375,0.8358154296875,-0.466064453125,-1.64794921875,-39.1845703125,13.916015625,121
2021-06-17 12:15:20.369838,0.201904296875,0.8251953125,-0.4344482421875,4.57763671875,-36.0107421875,16.357421875,106
2021-06-17 12:15:20.432711,0.2139892578125,0.8431396484375,-0.458984375,2.8076171875,-30.029296875,17.02880859375,119
2021-06-17 12:15:20.495662,0.1407470703125,0.85888671875,-0.4678955078125,2.8076171875,-23.4375,19.775390625,76
2021-06-17 12:15:20.558652,0.122314453125,0.8546142578125,-0.54736328125,9.033203125,-22.8271484375,19.775390625,90
2021-06-17 12:15:20.620422,0.118408203125,0.8291015625,-0.5107421875,15.19775390625,-20.1416015625,21.97265625,74
2021-06-17 12:15:20.683887,0.0955810546875,0.8040771484375,-0.5491943359375,13.427734375,-10.55908203125,22.5830078125,74
2021-06-17 12:15:20.747643,0.1495361328125,0.81591796875,-0.5799560546875,7.568359375,-16.845703125,24.71923828125,82
2021-06-17 12:15:20.808993,0.1895751953125,0.8521728515625,-0.5364990234375,2.99072265625,-20.81298828125,25.5126953125,82
2021-06-17 12:15:20.871612,0.182373046875,0.8438720703125,-0.5977783203125,2.62451171875,-17.15087890625,23.98681640625,96
2021-06-17 12:15:20.934888,0.161865234375,0.8582763671875,-0.547119140625,3.72314453125,-20.08056640625,25.5126953125,138
2021-06-17 12:15:20.997245,0.112060546875,0.814697265625,-0.54248046875,9.09423828125,-10.19287109375,19.1650390625,211
2021-06-17 12:15:21.059634,0.158203125,0.819580078125,-0.5872802734375,1.89208984375,-14.5263671875,20.08056640625,163
2021-06-17 12:15:21.121459,0.1317138671875,0.8453369140625,-0.4998779296875,8.48388671875,-13.18359375,15.869140625,181
2021-06-17 12:15:21.184671,0.164794921875,0.828369140625,-0.5572509765625,7.080078125,-9.33837890625,7.75146484375,232
2021-06-17 12:15:21.248511,0.271728515625,0.936279296875,-0.5963134765625,7.568359375,-8.72802734375,14.83154296875,218
2021-06-17 12:15:21.310869,0.184814453125,0.8995361328125,-0.563720703125,23.01025390625,0.91552734375,8.6669921875,259
2021-06-17 12:15:21.373792,0.1373291015625,0.86181640625,-0.6268310546875,22.94921875,9.70458984375,7.38525390625,306
2021-06-17 12:15:21.436650,0.197265625,0.8355712890625,-0.6563720703125,3.35693359375,1.0986328125,6.40869140625,409
2021-06-17 12:15:21.499648,0.16064453125,0.8441162109375,-0.63623046875,-1.28173828125,1.64794921875,8.23974609375,306
2021-06-17 12:15:21.561889,0.250244140625,0.9139404296875,-0.6717529296875,4.8828125,-6.34765625,9.21630859375,293
2021-06-17 12:15:21.624607,0.234619140625,0.8826904296875,-0.657958984375,17.15087890625,-3.84521484375,4.57763671875,293
2021-06-17 12:15:21.687963,0.24560546875,0.8575439453125,-0.7049560546875,10.1318359375,-2.685546875,6.8359375,226
2021-06-17 12:15:21.750720,0.318115234375,0.8880615234375,-0.69921875,-0.54931640625,-5.859375,6.9580078125,241
2021-06-17 12:15:21.813353,0.277099609375,0.9354248046875,-0.6497802734375,-7.14111328125,-4.08935546875,-0.42724609375,181
2021-06-17 12:15:21.876201,0.3123779296875,0.9039306640625,-0.725830078125,-8.544921875,-0.54931640625,1.40380859375,181
2021-06-17 12:15:21.928407,0.2484130859375,0.94677734375,-0.6826171875,-8.1787109375,-4.2724609375,-0.8544921875,226
2021-06-17 12:15:21.990925,0.3472900390625,0.9296875,-0.7427978515625,-5.43212890625,-4.21142578125,-5.615234375,409
2021-06-17 12:15:22.053146,0.3388671875,0.97607421875,-0.7269287109375,-7.14111328125,-8.72802734375,-1.64794921875,232
2021-06-17 12:15:22.116084,0.24462890625,0.9639892578125,-0.6776123046875,2.25830078125,-8.48388671875,-3.173828125,232
2021-06-17 12:15:22.178999,0.2520751953125,0.9296875,-0.6961669921875,2.44140625,-8.72802734375,-8.23974609375,293
2021-06-17 12:15:22.241384,0.2261962890625,0.922607421875,-0.6923828125,-2.5634765625,-11.1083984375,-9.27734375,259
2021-06-17 12:15:22.304665,0.236572265625,0.927734375,-0.70654296875,-0.6103515625,-12.87841796875,-9.21630859375,332
2021-06-17 12:15:22.367949,0.2464599609375,0.9193115234375,-0.6285400390625,9.6435546875,-16.9677734375,-13.61083984375,281
2021-06-17 12:15:22.430593,0.1522216796875,0.8387451171875,-0.6904296875,4.638671875,-14.70947265625,-16.41845703125,241
2021-06-17 12:15:22.493811,0.2388916015625,0.88720703125,-0.6588134765625,-3.35693359375,-16.29638671875,-15.625,259
2021-06-17 12:15:22.556479,0.2685546875,0.8704833984375,-0.6754150390625,-7.568359375,-14.83154296875,-18.85986328125,293
2021-06-17 12:15:22.618805,0.2049560546875,0.757568359375,-0.6038818359375,-0.6103515625,-15.9912109375,-26.7333984375,241
2021-06-17 12:15:22.681152,0.23876953125,0.789794921875,-0.6202392578125,-11.16943359375,-5.0048828125,-24.658203125,281
2021-06-17 12:15:22.743207,0.248046875,0.7513427734375,-0.6124267578125,-12.8173828125,-1.03759765625,-29.541015625,226
2021-06-17 12:15:22.806008,0.1209716796875,0.6865234375,-0.6029052734375,-12.20703125,14.6484375,-31.67724609375,259
2021-06-17 12:15:22.900028,0.34423828125,0.7528076171875,-0.5164794921875,-10.55908203125,35.2783203125,-41.015625,270
2021-06-17 12:15:22.962369,0.3704833984375,0.697998046875,-0.4952392578125,2.99072265625,56.2744140625,-38.14697265625,218
2021-06-17 12:15:23.024445,0.3013916015625,0.5853271484375,-0.5538330078125,6.7138671875,71.22802734375,-38.02490234375,124
2021-06-17 12:15:23.086641,0.5262451171875,0.6383056640625,-0.4398193359375,-24.84130859375,85.14404296875,-40.34423828125,116
2021-06-17 12:15:23.150331,0.5472412109375,0.8223876953125,-0.3829345703125,6.40869140625,103.08837890625,-37.29248046875,192
2021-06-17 12:15:23.213486,0.5604248046875,0.70849609375,-0.3323974609375,31.92138671875,124.1455078125,-27.2216796875,293
2021-06-17 12:15:23.275351,0.2623291015625,0.75830078125,-0.3619384765625,46.9970703125,125.0,-8.11767578125,121
2021-06-17 12:15:23.337690,-0.1151123046875,0.6614990234375,-0.5439453125,53.955078125,135.19287109375,-2.62451171875,176
2021-06-17 12:15:23.401126,-0.1141357421875,0.2911376953125,-0.3602294921875,53.64990234375,146.728515625,-8.85009765625,82
2021-06-17 12:15:23.463678,-0.003173828125,0.5009765625,-0.6131591796875,-43.64013671875,61.279296875,-23.37646484375,84
2021-06-17 12:15:23.526420,0.2760009765625,0.7520751953125,-0.6815185546875,-46.0205078125,62.98828125,-8.11767578125,116
2021-06-17 12:15:23.588472,0.177978515625,0.9345703125,-0.584228515625,-64.94140625,70.98388671875,32.77587890625,72
2021-06-17 12:15:23.650883,0.224609375,0.982666015625,-0.5909423828125,-60.85205078125,73.974609375,30.8837890625,81
2021-06-17 12:15:23.714191,0.215576171875,0.88330078125,-0.4945068359375,-38.51318359375,72.265625,42.8466796875,81
2021-06-17 12:15:23.777472,0.20361328125,0.7696533203125,-0.370361328125,-14.70947265625,82.6416015625,63.4765625,71
2021-06-17 12:15:23.839934,0.4205322265625,0.7540283203125,-0.3353271484375,-10.8642578125,85.3271484375,46.20361328125,110
2021-06-17 12:15:23.903203,0.3951416015625,0.85205078125,-0.276123046875,5.67626953125,74.15771484375,45.654296875,90
