arrival_time,acc_x,acc_y,acc_z,rot_x,rot_y,rot_z,ir_dist
2021-06-17 12:13:00.198157,0.907958984375,0.469482421875,0.035400390625,0.3662109375,-3.23486328125,1.40380859375,126
2021-06-17 12:13:00.260663,0.908447265625,0.474365234375,0.05224609375,-2.44140625,-4.150390625,-0.3662109375,87
2021-06-17 12:13:00.323118,0.90966796875,0.4677734375,0.049072265625,-1.220703125,-5.2490234375,-0.91552734375,83
2021-06-17 12:13:00.416452,0.908935546875,0.4586181640625,0.044677734375,0.732421875,-5.67626953125,-1.28173828125,87
2021-06-17 12:13:00.479018,0.90478515625,0.44873046875,0.0472412109375,0.732421875,-5.859375,-1.708984375,83
2021-06-17 12:13:00.541031,0.912353515625,0.4510498046875,0.0438232421875,-2.38037109375,-5.18798828125,-2.38037109375,91
2021-06-17 12:13:00.604150,0.909423828125,0.450927734375,0.044677734375,-3.2958984375,-6.2255859375,-1.77001953125,70
2021-06-17 12:13:00.668284,0.9080810546875,0.4505615234375,0.04931640625,-4.94384765625,-6.16455078125,-1.40380859375,63
2021-06-17 12:13:00.731500,0.9013671875,0.45068359375,0.0531005859375,-3.7841796875,-5.4931640625,-0.8544921875,72
2021-06-17 12:13:00.794588,0.9027099609375,0.4571533203125,0.0577392578125,-2.685546875,-5.126953125,-0.8544921875,68
2021-06-17 12:13:00.888673,0.907958984375,0.4583740234375,0.0601806640625,-2.3193359375,-6.04248046875,-1.8310546875,67
2021-06-17 12:13:00.950856,0.9080810546875,0.46240234375,0.05859375,-3.7841796875,-6.8359375,-1.64794921875,64
2021-06-17 12:13:01.012186,0.90234375,0.4649658203125,0.058349609375,-5.06591796875,-6.7138671875,-2.62451171875,69
2021-06-17 12:13:01.074439,0.8990478515625,0.47705078125,0.063720703125,-4.5166015625,-6.53076171875,-1.64794921875,79
2021-06-17 12:13:01.137586,0.88671875,0.47216796875,0.059326171875,-3.0517578125,-7.01904296875,-2.62451171875,77
2021-06-17 12:13:01.200289,0.89453125,0.4803466796875,0.0557861328125,-2.74658203125,-7.38525390625,-3.47900390625,64
2021-06-17 12:13:01.262249,0.896728515625,0.461669921875,0.0531005859375,-3.84521484375,-7.080078125,-3.7841796875,79
2021-06-17 12:13:01.324301,0.89697265625,0.47900390625,0.0496826171875,-4.69970703125,-6.103515625,-3.60107421875,69
2021-06-17 12:13:01.387448,0.8836669921875,0.4752197265625,0.05419921875,-5.2490234375,-5.859375,-3.72314453125,69
2021-06-17 12:13:01.450548,0.869384765625,0.4691162109375,0.0562744140625,-5.79833984375,-4.8828125,-3.7841796875,62
2021-06-17 12:13:01.512077,0.8797607421875,0.4661865234375,0.068359375,-7.14111328125,-4.45556640625,-5.2490234375,61
2021-06-17 12:13:01.574687,0.8826904296875,0.479736328125,0.0677490234375,-8.48388671875,-4.39453125,-5.126953125,59
2021-06-17 12:13:01.636579,0.870849609375,0.4720458984375,0.087158203125,-6.40869140625,-4.57763671875,-2.9296875,55
2021-06-17 12:13:01.698805,0.9051513671875,0.4793701171875,0.062255859375,-4.45556640625,-5.43212890625,-4.7607421875,64
2021-06-17 12:13:01.761125,0.893310546875,0.4771728515625,0.0611572265625,-7.50732421875,-6.9580078125,-9.3994140625,74
2021-06-17 12:13:01.822633,0.894775390625,0.4283447265625,0.0921630859375,1.0986328125,-5.92041015625,-11.71875,79
2021-06-17 12:13:01.885734,0.9559326171875,0.405029296875,0.061767578125,5.7373046875,-12.451171875,-27.16064453125,76
2021-06-17 12:13:01.947205,1.0367431640625,0.4727783203125,-0.0120849609375,-5.859375,-29.47998046875,-43.45703125,79
2021-06-17 12:13:02.009556,0.8487548828125,0.61669921875,-0.0621337890625,-8.6669921875,-42.96875,-45.0439453125,75
2021-06-17 12:13:02.072224,0.7181396484375,0.7818603515625,-0.0587158203125,-6.4697265625,-54.01611328125,-41.015625,75
2021-06-17 12:13:02.135052,0.8074951171875,0.7734375,-0.0548095703125,6.04248046875,-67.93212890625,-51.3916015625,67
2021-06-17 12:13:02.198165,0.74267578125,0.681884765625,-0.1771240234375,17.08984375,-89.2333984375,-50.6591796875,64
2021-06-17 12:13:02.260663,0.7156982421875,0.875732421875,-0.208984375,-6.40869140625,-89.35546875,-39.794921875,121
2021-06-17 12:13:02.323160,0.6927490234375,0.7181396484375,-0.1739501953125,1.953125,-96.19140625,-32.8369140625,63
2021-06-17 12:13:02.385954,0.644775390625,0.8040771484375,-0.2933349609375,-1.3427734375,-109.130859375,-50.78125,97
2021-06-17 12:13:02.447844,0.52685546875,0.8355712890625,-0.207275390625,4.82177734375,-105.52978515625,-45.7763671875,124
2021-06-17 12:13:02.510042,0.5472412109375,0.80224609375,-0.2496337890625,13.85498046875,-98.81591796875,-50.29296875,163
2021-06-17 12:13:02.572607,0.4366455078125,0.8109130859375,-0.33056640625,11.77978515625,-90.087890625,-42.3583984375,110
2021-06-17 12:13:02.635045,0.32568359375,0.8238525390625,-0.274169921875,9.82666015625,-68.115234375,-28.50341796875,76
2021-06-17 12:13:02.698544,0.2723388671875,0.8616943359375,-0.33349609375,-5.859375,-59.2041015625,-22.94921875,155
2021-06-17 12:13:02.760273,0.22216796875,0.8341064453125,-0.3096923828125,-3.35693359375,-51.1474609375,-23.3154296875,163
2021-06-17 12:13:02.823418,0.2044677734375,0.8175048828125,-0.3309326171875,-5.18798828125,-45.47119140625,-26.4892578125,176
2021-06-17 12:13:02.885558,0.1533203125,0.89892578125,-0.3349609375,1.28173828125,-34.72900390625,-20.81298828125,172
2021-06-17 12:13:02.980416,0.0548095703125,0.82763671875,-0.3785400390625,12.02392578125,-8.72802734375,-8.48388671875,187
2021-06-17 12:13:03.042497,0.009521484375,0.808349609375,-0.40771484375,6.28662109375,-11.04736328125,-6.28662109375,151
2021-06-17 12:13:03.105360,-0.0333251953125,0.7779541015625,-0.385009765625,7.2021484375,-18.98193359375,-5.615234375,172
2021-06-17 12:13:03.168123,0.00439453125,0.7440185546875,-0.4202880859375,-2.9296875,-31.25,0.3662109375,281
2021-06-17 12:13:03.231207,-0.0191650390625,0.7186279296875,-0.3800048828125,-3.7841796875,-40.771484375,3.7841796875,241
2021-06-17 12:13:03.294773,-0.015869140625,0.6416015625,-0.4498291015625,-4.638671875,-57.2509765625,-1.708984375,241
2021-06-17 12:13:03.357615,0.201416015625,0.628173828125,-0.548095703125,0.8544921875,-56.396484375,0.91552734375,181
2021-06-17 12:13:03.420533,0.61181640625,0.8128662109375,-0.6217041015625,15.93017578125,-58.9599609375,-4.82177734375,232
2021-06-17 12:13:03.483450,0.5928955078125,0.681884765625,-0.61767578125,37.7197265625,-35.2783203125,-10.25390625,192
2021-06-17 12:13:03.545900,0.53955078125,0.485107421875,-0.6336669921875,23.193359375,-22.64404296875,2.74658203125,555
2021-06-17 12:13:03.608390,0.5699462890625,0.57861328125,-0.5994873046875,-13.73291015625,-25.146484375,4.5166015625,320
2021-06-17 12:13:03.671403,0.6654052734375,0.73583984375,-0.70556640625,-20.44677734375,-22.27783203125,5.615234375,270
2021-06-17 12:13:03.732712,0.5006103515625,0.6483154296875,-0.64453125,-8.1787109375,-11.90185546875,16.2353515625,241
2021-06-17 12:13:03.795350,0.3204345703125,0.6192626953125,-0.65185546875,-5.2490234375,-10.3759765625,2.5634765625,232
2021-06-17 12:13:03.857707,0.5992431640625,0.67919921875,-0.7103271484375,12.20703125,-8.6669921875,4.69970703125,270
2021-06-17 12:13:03.921056,0.397705078125,0.56982421875,-0.6485595703125,0.244140625,-2.9296875,6.2255859375,293
2021-06-17 12:13:03.984247,0.383544921875,0.7239990234375,-0.687255859375,-8.23974609375,-7.8125,5.37109375,490
2021-06-17 12:13:04.047070,0.3707275390625,0.7041015625,-0.670166015625,4.5166015625,-2.9296875,2.74658203125,218
2021-06-17 12:13:04.108585,0.3321533203125,0.6937255859375,-0.6864013671875,3.84521484375,-0.732421875,3.11279296875,218
2021-06-17 12:13:04.171668,0.37060546875,0.732421875,-0.704345703125,-3.96728515625,-4.638671875,-1.28173828125,270
2021-06-17 12:13:04.265525,0.36328125,0.851806640625,-0.5865478515625,-24.10888671875,-10.07080078125,-0.1220703125,232
2021-06-17 12:13:04.328029,0.387451171875,0.8529052734375,-0.6673583984375,-3.173828125,-2.0751953125,0.8544921875,141
2021-06-17 12:13:04.390493,0.2628173828125,0.83935546875,-0.6114501953125,-13.18359375,-3.41796875,5.0048828125,116
2021-06-17 12:13:04.451923,0.249755859375,0.8359375,-0.615478515625,-12.39013671875,-2.99072265625,3.0517578125,159
2021-06-17 12:13:04.513407,0.2750244140625,0.8587646484375,-0.605224609375,-21.05712890625,-4.7607421875,3.5400390625,87
2021-06-17 12:13:04.576354,0.3818359375,0.861083984375,-0.662841796875,-19.59228515625,-10.68115234375,8.60595703125,281
2021-06-17 12:13:04.638383,0.333984375,0.882568359375,-0.5792236328125,-12.02392578125,-15.07568359375,9.09423828125,181
2021-06-17 12:13:04.702256,0.3189697265625,0.8753662109375,-0.55517578125,-6.16455078125,-15.9912109375,9.58251953125,155
2021-06-17 12:13:04.765269,0.3382568359375,0.8319091796875,-0.5120849609375,-5.7373046875,-13.427734375,10.8642578125,155
2021-06-17 12:13:04.827631,0.314697265625,0.9107666015625,-0.5335693359375,-10.7421875,-10.80322265625,6.103515625,121
2021-06-17 12:13:04.889508,0.3687744140625,0.8172607421875,-0.5687255859375,-9.6435546875,-8.11767578125,0.732421875,159
2021-06-17 12:13:04.951756,0.2701416015625,0.8521728515625,-0.5150146484375,-13.18359375,-15.80810546875,-0.79345703125,147
2021-06-17 12:13:05.013606,0.296142578125,0.854248046875,-0.5321044921875,-8.48388671875,-10.986328125,1.15966796875,138
2021-06-17 12:13:05.076196,0.3330078125,0.82958984375,-0.54150390625,0.48828125,-12.26806640625,-0.3662109375,155
2021-06-17 12:13:05.140024,0.3236083984375,0.8912353515625,-0.5458984375,3.23486328125,-11.41357421875,0.9765625,132
2021-06-17 12:13:05.202954,0.3427734375,0.8236083984375,-0.5509033203125,2.3193359375,-5.79833984375,2.197265625,132
2021-06-17 12:13:05.264685,0.3330078125,0.893798828125,-0.55615234375,-5.9814453125,-4.33349609375,3.84521484375,129
2021-06-17 12:13:05.327169,0.32421875,0.8553466796875,-0.527587890625,-6.16455078125,2.8076171875,-0.79345703125,176
2021-06-17 12:13:05.389912,0.4039306640625,0.8768310546875,-0.616943359375,-10.3759765625,2.5634765625,-0.48828125,204
2021-06-17 12:13:05.453159,0.4046630859375,0.939208984375,-0.5859375,-7.01904296875,-2.38037109375,-1.03759765625,135
2021-06-17 12:13:05.515786,0.41748046875,0.9779052734375,-0.650634765625,3.173828125,4.0283203125,-0.244140625,192
2021-06-17 12:13:05.577741,0.40673828125,0.9390869140625,-0.685546875,-4.82177734375,-4.7607421875,-5.06591796875,198
2021-06-17 12:13:05.640206,0.3980712890625,0.9678955078125,-0.6182861328125,-16.78466796875,-12.39013671875,-5.37109375,138
2021-06-17 12:13:05.702925,0.3878173828125,0.94970703125,-0.610595703125,-14.70947265625,-10.19287109375,-11.8408203125,176
2021-06-17 12:13:05.764007,0.3897705078125,1.0498046875,-0.639892578125,-7.8125,-12.87841796875,-11.29150390625,147
2021-06-17 12:13:05.826377,0.2705078125,0.8853759765625,-0.6312255859375,0.06103515625,-13.7939453125,-19.6533203125,126
2021-06-17 12:13:05.889504,0.312255859375,0.7984619140625,-0.617431640625,-18.6767578125,-24.71923828125,-20.5078125,104
2021-06-17 12:13:05.951164,0.2774658203125,0.9078369140625,-0.5223388671875,-25.57373046875,-33.935546875,-15.380859375,96
2021-06-17 12:13:06.013879,0.1998291015625,0.85498046875,-0.532470703125,-10.009765625,-29.4189453125,-20.08056640625,112
2021-06-17 12:13:06.075536,0.198974609375,0.918212890625,-0.519287109375,-2.3193359375,-33.69140625,-14.7705078125,116
2021-06-17 12:13:06.139002,0.1875,0.87744140625,-0.5086669921875,2.99072265625,-24.84130859375,-11.16943359375,187
2021-06-17 12:13:06.201885,0.1905517578125,0.7760009765625,-0.469482421875,-3.11279296875,-23.193359375,-14.5263671875,187
2021-06-17 12:13:06.264900,0.2030029296875,0.9219970703125,-0.490478515625,-21.240234375,-24.84130859375,-2.8076171875,187
2021-06-17 12:13:06.327347,0.263427734375,0.940185546875,-0.4617919921875,-10.498046875,-9.765625,-3.96728515625,172
2021-06-17 12:13:06.390223,0.160888671875,0.8980712890625,-0.4654541015625,-1.8310546875,-7.50732421875,-12.14599609375,187
2021-06-17 12:13:06.452641,0.235595703125,0.947021484375,-0.5091552734375,-6.53076171875,-3.90625,-10.19287109375,159
2021-06-17 12:13:06.515942,0.217529296875,0.8984375,-0.5421142578125,-7.26318359375,2.0751953125,-16.9677734375,132
2021-06-17 12:13:06.577761,0.2835693359375,0.83447265625,-0.566650390625,-7.14111328125,-1.708984375,-12.8173828125,155
2021-06-17 12:13:06.639757,0.18310546875,0.79345703125,-0.5372314453125,4.08935546875,-8.1787109375,-20.01953125,138
2021-06-17 12:13:06.702517,0.2989501953125,0.740234375,-0.5709228515625,5.859375,-5.37109375,-19.775390625,116
2021-06-17 12:13:06.766062,0.3187255859375,0.7159423828125,-0.5762939453125,10.31494140625,-13.24462890625,-20.20263671875,126
2021-06-17 12:13:06.827394,0.2178955078125,0.7025146484375,-0.5386962890625,8.11767578125,-8.1787109375,-19.71435546875,126
2021-06-17 12:13:06.889947,0.3514404296875,0.7882080078125,-0.551513671875,-5.18798828125,6.28662109375,-19.8974609375,119
2021-06-17 12:13:06.953271,0.5247802734375,0.7193603515625,-0.5521240234375,-24.10888671875,18.24951171875,-40.58837890625,124
2021-06-17 12:13:07.015905,0.468505859375,0.695556640625,-0.380859375,-17.822265625,40.8935546875,-23.37646484375,114
2021-06-17 12:13:07.077255,0.243896484375,0.867919921875,-0.2017822265625,-4.39453125,61.8896484375,-0.06103515625,72
2021-06-17 12:13:07.139891,-0.1014404296875,0.7872314453125,-0.33154296875,3.35693359375,71.71630859375,19.95849609375,75
2021-06-17 12:13:07.202784,-0.362548828125,0.7227783203125,-0.2305908203125,13.427734375,75.8056640625,24.23095703125,82
2021-06-17 12:13:07.265463,-0.267333984375,1.015380859375,-0.4364013671875,-17.822265625,57.67822265625,5.06591796875,97
2021-06-17 12:13:07.327722,-0.127197265625,0.85205078125,-0.4097900390625,9.70458984375,57.2509765625,14.2822265625,99
2021-06-17 12:13:07.391313,-0.142578125,0.9453125,-0.360107421875,-16.2353515625,48.9501953125,11.16943359375,96
2021-06-17 12:13:07.485336,-0.05029296875,0.9617919921875,-0.2108154296875,-30.8837890625,57.80029296875,10.43701171875,124
2021-06-17 12:13:07.547829,0.0701904296875,0.984619140625,-0.200439453125,-14.404296875,73.05908203125,25.08544921875,387
2021-06-17 12:13:07.641374,0.1976318359375,0.573974609375,-0.1781005859375,-10.498046875,64.3310546875,43.3349609375,104
2021-06-17 12:13:07.704440,0.3309326171875,0.9342041015625,-0.195068359375,-19.22607421875,52.67333984375,39.6728515625,82
2021-06-17 12:13:07.767732,0.1729736328125,0.97265625,-0.16796875,-4.39453125,50.96435546875,47.91259765625,75
2021-06-17 12:13:07.829588,0.3399658203125,0.904296875,-0.2430419921875,21.30126953125,66.34521484375,57.43408203125,138
2021-06-17 12:13:07.892299,0.4742431640625,0.634765625,-0.3497314453125,23.37646484375,58.349609375,32.2265625,116
2021-06-17 12:13:07.954945,0.4461669921875,0.8502197265625,-0.285400390625,11.90185546875,49.6826171875,45.2880859375,135
2021-06-17 12:13:08.017759,0.4671630859375,0.75390625,-0.33154296875,-4.39453125,57.18994140625,48.4619140625,155
2021-06-17 12:13:08.079835,0.5400390625,0.7730712890625,-0.2138671875,-10.68115234375,57.2509765625,48.4619140625,147
2021-06-17 12:13:08.142275,0.538818359375,0.7418212890625,-0.23779296875,17.39501953125,54.13818359375,55.84716796875,168
