arrival_time,acc_x,acc_y,acc_z,rot_x,rot_y,rot_z,ir_dist
2021-06-16 15:34:01.592389,0.5931396484375,0.669189453125,-0.4232177734375,-3.11279296875,-4.45556640625,1.15966796875,106
2021-06-16 15:34:01.654102,0.60107421875,0.66796875,-0.413330078125,-3.173828125,-5.2490234375,-0.54931640625,79
2021-06-16 15:34:01.715769,0.572998046875,0.6614990234375,-0.4151611328125,-2.62451171875,-4.57763671875,0.3662109375,102
2021-06-16 15:34:01.777232,0.6102294921875,0.675537109375,-0.4315185546875,-3.96728515625,-4.5166015625,0.244140625,83
2021-06-16 15:34:01.839780,0.5888671875,0.672607421875,-0.41162109375,-3.0517578125,-5.55419921875,-0.1220703125,61
2021-06-16 15:34:01.902463,0.5845947265625,0.675048828125,-0.405029296875,-2.25830078125,-5.126953125,0.91552734375,52
2021-06-16 15:34:01.965495,0.59130859375,0.6788330078125,-0.408447265625,-2.13623046875,-4.45556640625,0.48828125,45
2021-06-16 15:34:02.028317,0.603271484375,0.65673828125,-0.4034423828125,-1.953125,-4.39453125,0.0,33
2021-06-16 15:34:02.091254,0.5814208984375,0.69384765625,-0.4117431640625,-1.64794921875,-3.90625,-0.48828125,33
2021-06-16 15:34:02.154149,0.5980224609375,0.6573486328125,-0.39404296875,2.685546875,-3.90625,1.40380859375,29
2021-06-16 15:34:02.216880,0.59130859375,0.6732177734375,-0.411865234375,-1.52587890625,-2.62451171875,-0.3662109375,36
2021-06-16 15:34:02.279577,0.59130859375,0.6817626953125,-0.3939208984375,0.6103515625,-2.5634765625,0.30517578125,31
2021-06-16 15:34:02.342343,0.6036376953125,0.658447265625,-0.3929443359375,0.42724609375,-2.86865234375,0.9765625,30
2021-06-16 15:34:02.437377,0.5950927734375,0.677734375,-0.4105224609375,-2.38037109375,-3.47900390625,0.30517578125,27
2021-06-16 15:34:02.500234,0.5994873046875,0.6749267578125,-0.4124755859375,0.54931640625,-4.57763671875,1.708984375,31
2021-06-16 15:34:02.563097,0.58544921875,0.68359375,-0.404296875,1.953125,-2.62451171875,0.18310546875,29
2021-06-16 15:34:02.624500,0.5953369140625,0.6669921875,-0.401611328125,3.5400390625,-3.35693359375,0.91552734375,31
2021-06-16 15:34:02.686388,0.6036376953125,0.664794921875,-0.39501953125,1.28173828125,-2.99072265625,-0.06103515625,33
2021-06-16 15:34:02.777964,0.6199951171875,0.673583984375,-0.4093017578125,2.01416015625,-4.21142578125,-0.244140625,38
2021-06-16 15:34:02.839352,0.5926513671875,0.6641845703125,-0.401611328125,2.13623046875,-4.150390625,0.18310546875,34
2021-06-16 15:34:02.902464,0.599853515625,0.6669921875,-0.397705078125,1.5869140625,-3.35693359375,-0.06103515625,28
2021-06-16 15:34:02.964866,0.6116943359375,0.6669921875,-0.405029296875,1.52587890625,-3.90625,-0.3662109375,41
2021-06-16 15:34:03.057860,0.6180419921875,0.6650390625,-0.409423828125,1.0986328125,-4.7607421875,0.48828125,35
2021-06-16 15:34:03.150915,0.5823974609375,0.6602783203125,-0.40576171875,0.244140625,-3.2958984375,1.15966796875,34
2021-06-16 15:34:03.213741,0.59326171875,0.6658935546875,-0.4090576171875,-0.9765625,-2.44140625,0.18310546875,30
2021-06-16 15:34:03.276911,0.5999755859375,0.6690673828125,-0.4010009765625,-2.3193359375,-1.8310546875,0.8544921875,36
2021-06-16 15:34:03.340296,0.605224609375,0.662841796875,-0.407958984375,-4.2724609375,-2.44140625,3.41796875,38
2021-06-16 15:34:03.403970,0.5972900390625,0.6571044921875,-0.419189453125,-5.4931640625,-3.84521484375,4.39453125,24
2021-06-16 15:34:03.466225,0.595703125,0.656005859375,-0.432861328125,-7.38525390625,-3.90625,5.43212890625,30
2021-06-16 15:34:03.528364,0.5924072265625,0.6956787109375,-0.4368896484375,-10.43701171875,-6.04248046875,5.31005859375,29
2021-06-16 15:34:03.589674,0.5567626953125,0.6744384765625,-0.435791015625,-12.3291015625,-9.46044921875,8.056640625,34
2021-06-16 15:34:03.652433,0.6119384765625,0.729736328125,-0.44091796875,-33.38623046875,-17.578125,13.97705078125,40
2021-06-16 15:34:03.745355,0.6357421875,0.6817626953125,-0.4544677734375,-46.69189453125,-27.03857421875,15.9912109375,67
2021-06-16 15:34:03.837821,0.6068115234375,0.7010498046875,-0.446044921875,-39.9169921875,-45.654296875,5.67626953125,29
2021-06-16 15:34:03.900356,0.7366943359375,0.7972412109375,-0.468505859375,-46.875,-56.7626953125,-6.40869140625,29
2021-06-16 15:34:03.962909,0.76220703125,0.8531494140625,-0.486083984375,-39.1845703125,-82.275390625,-22.216796875,37
2021-06-16 15:34:04.025691,0.70166015625,0.810302734375,-0.429931640625,-35.82763671875,-102.6611328125,-24.2919921875,56
2021-06-16 15:34:04.087175,0.667724609375,0.8878173828125,-0.481201171875,-42.96875,-121.64306640625,-37.41455078125,71
2021-06-16 15:34:04.150730,0.6090087890625,0.8701171875,-0.4814453125,-45.654296875,-141.41845703125,-51.1474609375,52
2021-06-16 15:34:04.212410,0.4071044921875,0.8831787109375,-0.4566650390625,-46.7529296875,-149.5361328125,-56.2744140625,20
2021-06-16 15:34:04.275766,0.3348388671875,0.918212890625,-0.5771484375,-51.08642578125,-155.8837890625,-60.11962890625,9
2021-06-16 15:34:04.337682,0.329345703125,0.8687744140625,-0.41015625,-68.17626953125,-170.71533203125,-55.72509765625,9
2021-06-16 15:34:04.400147,0.0875244140625,0.8072509765625,-0.3802490234375,-54.19921875,-173.15673828125,-43.9453125,7
2021-06-16 15:34:04.462013,0.1728515625,0.7808837890625,-0.3773193359375,-55.5419921875,-171.56982421875,-43.701171875,6
2021-06-16 15:34:04.524461,0.017333984375,0.7186279296875,-0.332275390625,-48.4619140625,-162.41455078125,-47.119140625,5
2021-06-16 15:34:04.586428,0.01171875,0.6585693359375,-0.2684326171875,-24.2919921875,-145.20263671875,-47.8515625,5
2021-06-16 15:34:04.649303,-0.03466796875,0.6173095703125,-0.16015625,-12.87841796875,-127.9296875,-47.91259765625,4
2021-06-16 15:34:04.712119,-0.1376953125,0.630859375,-0.0396728515625,-13.00048828125,-110.4736328125,-30.94482421875,4
2021-06-16 15:34:04.773099,-0.060302734375,0.7464599609375,-0.2293701171875,-9.27734375,-91.6748046875,-18.37158203125,4
2021-06-16 15:34:04.835747,-0.17529296875,0.9088134765625,0.158447265625,8.056640625,-51.33056640625,0.1220703125,4
2021-06-16 15:34:04.898131,-0.5255126953125,0.9114990234375,0.110595703125,8.60595703125,-27.83203125,6.53076171875,4
2021-06-16 15:34:04.960462,-0.0643310546875,0.7291259765625,0.112548828125,-23.86474609375,18.61572265625,-1.64794921875,4
2021-06-16 15:34:05.023317,-0.3668212890625,1.1146240234375,-0.3057861328125,-22.15576171875,30.82275390625,-1.0986328125,4
2021-06-16 15:34:05.084901,-0.078125,1.05712890625,-0.300048828125,15.44189453125,16.90673828125,9.521484375,4
2021-06-16 15:34:05.147354,-0.4063720703125,0.8883056640625,-0.2637939453125,9.765625,19.53125,5.615234375,4
2021-06-16 15:34:05.239883,-0.3287353515625,0.9427490234375,-0.2535400390625,6.16455078125,16.6015625,-5.7373046875,4
2021-06-16 15:34:05.302019,-0.329345703125,0.8985595703125,-0.24609375,4.45556640625,12.939453125,-5.43212890625,4
2021-06-16 15:34:05.364009,-0.3009033203125,0.9149169921875,-0.2210693359375,-3.41796875,9.33837890625,-8.1787109375,4
2021-06-16 15:34:05.426435,-0.2662353515625,0.9112548828125,-0.230224609375,2.8076171875,8.60595703125,-3.96728515625,4
2021-06-16 15:34:05.487602,-0.2698974609375,0.9246826171875,-0.2264404296875,-0.9765625,6.65283203125,-5.126953125,4
2021-06-16 15:34:05.549355,-0.31982421875,0.9312744140625,-0.155029296875,3.90625,11.41357421875,-6.2255859375,4
2021-06-16 15:34:05.611212,-0.3074951171875,0.8800048828125,-0.1910400390625,3.41796875,13.427734375,-4.39453125,4
2021-06-16 15:34:05.673348,-0.2730712890625,0.90185546875,-0.182861328125,3.35693359375,18.49365234375,-5.4931640625,4
2021-06-16 15:34:05.736357,-0.30810546875,0.9090576171875,-0.22900390625,6.591796875,20.01953125,-7.32421875,4
2021-06-16 15:34:05.798923,-0.3382568359375,0.823486328125,-0.163330078125,11.90185546875,27.16064453125,-2.0751953125,4
2021-06-16 15:34:05.860295,-0.25439453125,0.8592529296875,-0.231689453125,5.2490234375,29.9072265625,1.64794921875,4
2021-06-16 15:34:05.921484,-0.2666015625,0.950439453125,-0.228759765625,2.197265625,35.82763671875,-6.89697265625,4
2021-06-16 15:34:05.983604,-0.2596435546875,0.812744140625,-0.217529296875,17.15087890625,39.00146484375,0.91552734375,4
2021-06-16 15:34:06.046219,-0.2242431640625,0.9110107421875,-0.2462158203125,5.06591796875,44.73876953125,-4.2724609375,4
2021-06-16 15:34:06.107955,-0.248779296875,0.903076171875,-0.287109375,8.4228515625,49.62158203125,-2.38037109375,4
2021-06-16 15:34:06.170390,-0.176513671875,0.870849609375,-0.32421875,8.056640625,50.23193359375,-0.18310546875,4
2021-06-16 15:34:06.233139,-0.2099609375,0.906494140625,-0.2755126953125,8.72802734375,57.373046875,-0.1220703125,4
2021-06-16 15:34:06.294328,-0.1986083984375,0.791015625,-0.386474609375,13.3056640625,55.72509765625,5.43212890625,4
2021-06-16 15:34:06.356666,-0.0498046875,0.9229736328125,-0.3292236328125,9.70458984375,54.443359375,0.6103515625,5
2021-06-16 15:34:06.419295,-0.2513427734375,0.84423828125,-0.3729248046875,13.0615234375,59.38720703125,5.79833984375,6
2021-06-16 15:34:06.482416,-0.084228515625,0.857666015625,-0.4305419921875,15.380859375,59.50927734375,8.30078125,7
2021-06-16 15:34:06.544234,-0.0616455078125,0.840087890625,-0.3223876953125,6.89697265625,65.85693359375,4.5166015625,8
2021-06-16 15:34:06.606392,-0.08203125,0.871337890625,-0.445068359375,10.25390625,72.021484375,6.9580078125,9
2021-06-16 15:34:06.668635,0.076416015625,0.8690185546875,-0.3531494140625,24.35302734375,73.79150390625,11.53564453125,11
2021-06-16 15:34:06.729926,-0.045654296875,0.80078125,-0.4296875,18.24951171875,79.345703125,14.7705078125,17
2021-06-16 15:34:06.792098,0.078125,0.7918701171875,-0.3614501953125,27.89306640625,88.56201171875,20.69091796875,33
2021-06-16 15:34:06.853255,0.14990234375,0.8062744140625,-0.4761962890625,33.5693359375,90.14892578125,26.123046875,65
2021-06-16 15:34:06.914592,0.2242431640625,0.7152099609375,-0.2998046875,36.43798828125,91.24755859375,38.818359375,68
2021-06-16 15:34:06.976209,0.0693359375,0.6766357421875,-0.448486328125,12.6953125,110.04638671875,52.55126953125,73
2021-06-16 15:34:07.038125,0.6937255859375,0.75,-0.3289794921875,21.78955078125,95.703125,59.50927734375,64
2021-06-16 15:34:07.100522,0.416259765625,0.608642578125,-0.369384765625,-3.0517578125,100.64697265625,76.11083984375,74
2021-06-16 15:34:07.161988,0.8758544921875,0.7100830078125,-0.5469970703125,-3.5400390625,92.1630859375,64.63623046875,38
2021-06-16 15:34:07.223449,0.6015625,0.7325439453125,-0.4337158203125,-4.33349609375,62.01171875,49.8046875,36
2021-06-16 15:34:07.286561,0.643310546875,0.7431640625,-0.474365234375,9.82666015625,48.9501953125,55.2978515625,31
2021-06-16 15:34:07.347346,0.730224609375,0.8348388671875,-0.467529296875,21.97265625,34.60693359375,40.1611328125,31
2021-06-16 15:34:07.409949,0.5421142578125,0.72314453125,-0.4266357421875,29.72412109375,24.71923828125,33.69140625,28
2021-06-16 15:34:07.472500,0.6824951171875,0.8228759765625,-0.4156494140625,31.79931640625,21.91162109375,22.3388671875,37
2021-06-16 15:34:07.534028,0.632568359375,0.794677734375,-0.3548583984375,37.29248046875,15.56396484375,17.39501953125,36
2021-06-16 15:34:07.596406,0.6627197265625,0.677001953125,-0.3658447265625,30.76171875,21.17919921875,16.6015625,35
2021-06-16 15:34:07.658961,0.744384765625,0.7269287109375,-0.3544921875,13.73291015625,16.66259765625,5.31005859375,48
2021-06-16 15:34:07.721816,0.700927734375,0.6932373046875,-0.3472900390625,5.4931640625,13.85498046875,1.89208984375,81
2021-06-16 15:34:07.783024,0.73974609375,0.66845703125,-0.3580322265625,-15.19775390625,10.1318359375,4.69970703125,96
2021-06-16 15:34:07.844808,0.718994140625,0.693115234375,-0.3919677734375,-23.13232421875,0.48828125,0.3662109375,69
2021-06-16 15:34:07.906507,0.6802978515625,0.62939453125,-0.359375,-19.775390625,-3.60107421875,1.77001953125,38
2021-06-16 15:34:07.968878,0.693115234375,0.654296875,-0.3614501953125,-13.671875,-4.33349609375,-1.708984375,47
2021-06-16 15:34:08.030616,0.6776123046875,0.6793212890625,-0.3511962890625,-8.6669921875,-7.2021484375,-5.37109375,42
2021-06-16 15:34:08.093312,0.6796875,0.659912109375,-0.3385009765625,-7.75146484375,-10.07080078125,-4.08935546875,40
2021-06-16 15:34:08.155252,0.6641845703125,0.6734619140625,-0.319580078125,-8.36181640625,-10.8642578125,-5.18798828125,44
2021-06-16 15:34:08.218032,0.679443359375,0.6478271484375,-0.3009033203125,-2.50244140625,-10.80322265625,-4.69970703125,44
2021-06-16 15:34:08.281184,0.6768798828125,0.618896484375,-0.2821044921875,-8.23974609375,-8.544921875,-2.74658203125,51
2021-06-16 15:34:08.343349,0.718505859375,0.6488037109375,-0.2847900390625,-10.3759765625,-9.94873046875,-2.9296875,50
2021-06-16 15:34:08.405937,0.6973876953125,0.6595458984375,-0.27587890625,-7.14111328125,-11.1083984375,-2.50244140625,52
2021-06-16 15:34:08.500063,0.6824951171875,0.6292724609375,-0.3011474609375,-7.6904296875,-9.27734375,-0.3662109375,44
2021-06-16 15:34:08.561074,0.702880859375,0.666259765625,-0.2974853515625,-7.87353515625,-11.474609375,-0.6103515625,41
2021-06-16 15:34:08.654617,0.6495361328125,0.6871337890625,-0.3004150390625,-5.43212890625,-10.92529296875,-0.42724609375,43
2021-06-16 15:34:08.716655,0.6224365234375,0.6624755859375,-0.271240234375,-1.77001953125,-5.37109375,0.30517578125,39
2021-06-16 15:34:08.778395,0.660888671875,0.667236328125,-0.2801513671875,-0.91552734375,-2.74658203125,-0.1220703125,37
2021-06-16 15:34:08.840072,0.6912841796875,0.67431640625,-0.27197265625,0.732421875,-3.0517578125,0.06103515625,39
2021-06-16 15:34:08.902568,0.693359375,0.65185546875,-0.267578125,2.44140625,-3.662109375,0.54931640625,41
2021-06-16 15:34:08.964976,0.69482421875,0.65869140625,-0.2510986328125,2.50244140625,-2.38037109375,-0.18310546875,44
2021-06-16 15:34:09.027284,0.7105712890625,0.6473388671875,-0.2664794921875,-1.46484375,-4.150390625,0.18310546875,35
2021-06-16 15:34:09.090099,0.7137451171875,0.6597900390625,-0.2906494140625,-1.15966796875,-5.18798828125,0.0,35
2021-06-16 15:34:09.153204,0.684326171875,0.643798828125,-0.282470703125,-0.1220703125,-7.75146484375,0.67138671875,36
2021-06-16 15:34:09.215858,0.6824951171875,0.6702880859375,-0.3052978515625,-1.28173828125,-7.14111328125,-0.732421875,33
2021-06-16 15:34:09.277709,0.64990234375,0.6551513671875,-0.2967529296875,4.08935546875,-5.9814453125,-0.8544921875,34
2021-06-16 15:34:09.370859,0.6761474609375,0.6644287109375,-0.327880859375,2.38037109375,-5.55419921875,-1.0986328125,36
2021-06-16 15:34:09.433471,0.6844482421875,0.690673828125,-0.2974853515625,5.37109375,-10.19287109375,-5.31005859375,38
2021-06-16 15:34:09.526653,0.650390625,0.6583251953125,-0.298828125,5.43212890625,-8.48388671875,-2.0751953125,36
2021-06-16 15:34:09.589310,0.721923828125,0.6661376953125,-0.3162841796875,5.92041015625,-7.99560546875,-1.28173828125,38
