arrival_time,acc_x,acc_y,acc_z,rot_x,rot_y,rot_z,ir_dist
2021-06-17 12:25:50.072490,0.9168701171875,0.3907470703125,-0.067138671875,1.15966796875,-3.7841796875,0.67138671875,17
2021-06-17 12:25:50.134315,0.90771484375,0.4095458984375,-0.0556640625,0.48828125,-4.0283203125,0.732421875,15
2021-06-17 12:25:50.196981,0.9200439453125,0.4088134765625,-0.0582275390625,-1.03759765625,-4.0283203125,0.79345703125,12
2021-06-17 12:25:50.259620,0.9154052734375,0.4176025390625,-0.0560302734375,-2.197265625,-4.150390625,0.18310546875,11
2021-06-17 12:25:50.322515,0.916748046875,0.4139404296875,-0.058837890625,-1.89208984375,-4.39453125,-0.91552734375,11
2021-06-17 12:25:50.854969,0.9166259765625,0.4119873046875,-0.0557861328125,-1.8310546875,-4.638671875,-1.708984375,11
2021-06-17 12:25:50.917507,0.91650390625,0.4114990234375,-0.054931640625,-2.44140625,-3.96728515625,-2.5634765625,10
2021-06-17 12:25:50.981144,0.91552734375,0.408935546875,-0.04931640625,-2.13623046875,-4.57763671875,-3.11279296875,10
2021-06-17 12:25:51.044086,0.9200439453125,0.405517578125,-0.0517578125,-1.220703125,-4.82177734375,-1.46484375,10
2021-06-17 12:25:51.105922,0.923095703125,0.3956298828125,-0.0498046875,-1.03759765625,-5.126953125,-2.25830078125,13
2021-06-17 12:25:51.168097,0.9100341796875,0.3983154296875,-0.0513916015625,-3.0517578125,-4.7607421875,-1.52587890625,19
2021-06-17 12:25:51.230880,0.9122314453125,0.402587890625,-0.0496826171875,-1.64794921875,-4.45556640625,-1.28173828125,29
2021-06-17 12:25:51.294235,0.90869140625,0.3941650390625,-0.057373046875,0.1220703125,-4.69970703125,-1.3427734375,39
2021-06-17 12:25:51.355900,0.914794921875,0.397705078125,-0.050048828125,-1.40380859375,-3.96728515625,-1.28173828125,47
2021-06-17 12:25:51.419281,0.916015625,0.40625,-0.05419921875,-0.244140625,-3.90625,-0.91552734375,39
2021-06-17 12:25:51.482003,0.9149169921875,0.4034423828125,-0.051025390625,1.40380859375,-3.84521484375,-0.244140625,38
2021-06-17 12:25:51.544489,0.916748046875,0.4013671875,-0.04931640625,0.54931640625,-4.0283203125,0.06103515625,37
2021-06-17 12:25:51.606871,0.9180908203125,0.404052734375,-0.05322265625,-2.01416015625,-3.5400390625,0.732421875,36
2021-06-17 12:25:51.668840,0.9158935546875,0.41357421875,-0.0511474609375,-2.74658203125,-3.5400390625,-0.30517578125,34
2021-06-17 12:25:51.731277,0.91845703125,0.41162109375,-0.0545654296875,-0.3662109375,-3.5400390625,-0.244140625,34
2021-06-17 12:25:51.793061,0.9259033203125,0.4100341796875,-0.053466796875,1.03759765625,-2.9296875,-0.8544921875,33
2021-06-17 12:25:51.855846,0.9197998046875,0.4073486328125,-0.050537109375,2.9296875,-3.0517578125,-1.77001953125,31
2021-06-17 12:25:51.917746,0.912109375,0.411376953125,-0.048828125,3.41796875,-3.72314453125,-1.8310546875,28
2021-06-17 12:25:51.979984,0.9039306640625,0.41064453125,-0.0506591796875,3.0517578125,-3.7841796875,-1.46484375,29
2021-06-17 12:25:52.073704,0.905029296875,0.42138671875,-0.051513671875,1.40380859375,-3.2958984375,-2.01416015625,35
2021-06-17 12:25:52.136564,0.9017333984375,0.4111328125,-0.057861328125,1.52587890625,-3.72314453125,-1.52587890625,28
2021-06-17 12:25:52.201742,0.9097900390625,0.41064453125,-0.057861328125,0.67138671875,-3.84521484375,-2.01416015625,33
2021-06-17 12:25:52.264183,0.9227294921875,0.41552734375,-0.0625,0.54931640625,-4.45556640625,-2.44140625,36
2021-06-17 12:25:52.327046,0.9229736328125,0.415283203125,-0.061279296875,1.220703125,-4.8828125,-3.41796875,36
2021-06-17 12:25:52.389855,0.9180908203125,0.4161376953125,-0.059814453125,2.44140625,-3.84521484375,-3.72314453125,40
2021-06-17 12:25:52.453090,0.9425048828125,0.4442138671875,-0.065673828125,0.48828125,-3.60107421875,-4.5166015625,47
2021-06-17 12:25:52.516367,0.935302734375,0.45703125,-0.068359375,3.23486328125,-4.7607421875,-4.94384765625,46
2021-06-17 12:25:52.579641,0.9268798828125,0.4666748046875,-0.08154296875,1.64794921875,-4.33349609375,-8.85009765625,23
2021-06-17 12:25:52.641486,0.8836669921875,0.4630126953125,-0.0673828125,5.126953125,-5.79833984375,-12.75634765625,25
2021-06-17 12:25:52.703760,0.8720703125,0.4818115234375,-0.0723876953125,-4.21142578125,-3.2958984375,-17.88330078125,29
2021-06-17 12:25:52.766416,0.8470458984375,0.5343017578125,-0.0496826171875,-19.8974609375,7.8125,-24.71923828125,46
2021-06-17 12:25:52.829049,0.808837890625,0.592529296875,-0.02978515625,-19.22607421875,9.33837890625,-35.0341796875,45
2021-06-17 12:25:52.892035,0.7589111328125,0.576904296875,0.04736328125,-5.7373046875,6.9580078125,-34.48486328125,43
2021-06-17 12:25:52.954334,0.75244140625,0.5626220703125,0.1212158203125,-3.23486328125,5.06591796875,-38.818359375,48
2021-06-17 12:25:53.017139,0.7445068359375,0.5821533203125,0.14892578125,-12.02392578125,2.01416015625,-47.42431640625,53
2021-06-17 12:25:53.079950,0.79638671875,0.530517578125,0.1402587890625,-38.2080078125,5.31005859375,-45.41015625,53
2021-06-17 12:25:53.143692,0.822509765625,0.6231689453125,0.14794921875,-46.69189453125,16.11328125,-41.32080078125,51
2021-06-17 12:25:53.206727,0.756103515625,0.6419677734375,0.206298828125,-7.50732421875,10.80322265625,-37.7197265625,42
2021-06-17 12:25:53.268413,0.7266845703125,0.609130859375,0.20947265625,10.80322265625,6.4697265625,-28.25927734375,44
2021-06-17 12:25:53.331516,0.7022705078125,0.62255859375,0.20361328125,2.44140625,6.2255859375,-24.0478515625,52
2021-06-17 12:25:53.394344,0.66455078125,0.6160888671875,0.1929931640625,-3.60107421875,1.46484375,-23.92578125,59
2021-06-17 12:25:53.456485,0.6204833984375,0.6326904296875,0.2025146484375,-11.8408203125,-2.197265625,-17.88330078125,66
2021-06-17 12:25:53.518709,0.61865234375,0.63427734375,0.1973876953125,-14.22119140625,-7.38525390625,-17.7001953125,62
2021-06-17 12:25:53.581299,0.6094970703125,0.592041015625,0.1854248046875,-9.521484375,-14.58740234375,-15.5029296875,69
2021-06-17 12:25:53.644524,0.607666015625,0.5909423828125,0.1607666015625,-2.62451171875,-23.4375,-19.8974609375,56
2021-06-17 12:25:53.737993,0.723876953125,0.61279296875,0.0157470703125,-16.357421875,-27.89306640625,-24.5361328125,64
2021-06-17 12:25:53.800003,0.9066162109375,0.7232666015625,-0.0546875,-32.3486328125,-21.484375,-11.29150390625,69
2021-06-17 12:25:53.862753,0.8782958984375,0.7974853515625,-0.02587890625,-1.3427734375,-21.728515625,-7.50732421875,68
2021-06-17 12:25:53.924875,0.89306640625,0.7366943359375,-0.122314453125,13.24462890625,-18.06640625,-0.67138671875,62
2021-06-17 12:25:53.987734,0.8988037109375,0.759765625,-0.1470947265625,5.55419921875,-11.90185546875,4.7607421875,60
2021-06-17 12:25:54.051025,0.8466796875,0.773193359375,-0.091796875,12.75634765625,-10.68115234375,-2.197265625,64
2021-06-17 12:25:54.114062,0.776123046875,0.7520751953125,-0.109619140625,3.2958984375,-6.65283203125,-1.40380859375,61
2021-06-17 12:25:54.176877,0.656982421875,0.7379150390625,-0.0318603515625,27.52685546875,-12.51220703125,-6.77490234375,59
2021-06-17 12:25:54.238880,0.6063232421875,0.6927490234375,-0.0479736328125,16.78466796875,-13.3056640625,-8.97216796875,59
2021-06-17 12:25:54.300960,0.5987548828125,0.7510986328125,-0.0701904296875,-0.67138671875,-13.0615234375,-7.38525390625,74
2021-06-17 12:25:54.363557,0.53369140625,0.7645263671875,-0.0595703125,9.3994140625,-12.939453125,-9.033203125,74
2021-06-17 12:25:54.457724,0.569091796875,0.7357177734375,-0.1168212890625,-0.3662109375,-12.39013671875,-10.3759765625,61
2021-06-17 12:25:54.519069,0.639892578125,0.7862548828125,-0.08203125,0.6103515625,-6.103515625,-11.29150390625,64
2021-06-17 12:25:54.612858,0.6434326171875,0.781982421875,-0.0799560546875,5.55419921875,-13.427734375,-14.2822265625,71
2021-06-17 12:25:54.674728,0.615234375,0.7943115234375,-0.04638671875,7.6904296875,-14.95361328125,-17.15087890625,66
2021-06-17 12:25:54.736098,0.5572509765625,0.78857421875,-0.0364990234375,20.56884765625,-22.64404296875,-24.7802734375,69
2021-06-17 12:25:54.798994,0.4813232421875,0.741943359375,-0.0572509765625,6.7138671875,-26.55029296875,-21.97265625,59
2021-06-17 12:25:54.862155,0.5067138671875,0.8055419921875,-0.060302734375,-4.69970703125,-21.66748046875,-23.13232421875,57
2021-06-17 12:25:54.925029,0.57568359375,0.8406982421875,-0.11474609375,-5.2490234375,-18.85986328125,-29.23583984375,63
2021-06-17 12:25:54.988153,0.59375,0.8125,-0.0712890625,-2.74658203125,-27.64892578125,-21.78955078125,63
2021-06-17 12:25:55.049840,0.6033935546875,0.8577880859375,-0.0531005859375,24.59716796875,-25.146484375,-21.30126953125,65
2021-06-17 12:25:55.112284,0.6617431640625,0.8291015625,-0.1663818359375,-6.65283203125,-27.4658203125,-21.30126953125,65
2021-06-17 12:25:55.205207,0.6033935546875,0.869384765625,-0.061279296875,-1.15966796875,-27.099609375,-22.94921875,65
2021-06-17 12:25:55.267852,0.5299072265625,0.9197998046875,-0.0587158203125,5.126953125,-27.03857421875,-37.59765625,65
2021-06-17 12:25:55.330733,0.4627685546875,0.7926025390625,-0.1390380859375,0.30517578125,-26.67236328125,-30.8837890625,62
2021-06-17 12:25:55.392935,0.45166015625,0.8609619140625,-0.146728515625,10.009765625,-24.71923828125,-27.89306640625,61
2021-06-17 12:25:55.455753,0.4547119140625,0.8297119140625,-0.2119140625,-0.6103515625,-24.35302734375,-20.99609375,68
2021-06-17 12:25:55.549685,0.44775390625,0.888916015625,-0.2266845703125,2.01416015625,-19.95849609375,-16.4794921875,56
2021-06-17 12:25:55.613163,0.4736328125,0.9339599609375,-0.267822265625,-12.26806640625,-15.31982421875,-12.51220703125,71
2021-06-17 12:25:55.675956,0.4398193359375,0.948974609375,-0.180908203125,-3.5400390625,-15.19775390625,-12.75634765625,72
2021-06-17 12:25:55.738657,0.3939208984375,0.9517822265625,-0.19384765625,9.70458984375,-14.83154296875,-9.33837890625,65
2021-06-17 12:25:55.800923,0.377197265625,0.9075927734375,-0.198486328125,11.23046875,-9.21630859375,-5.7373046875,61
2021-06-17 12:25:55.862298,0.355712890625,0.9259033203125,-0.2000732421875,10.1318359375,-7.75146484375,-6.8359375,76
2021-06-17 12:25:55.924162,0.4002685546875,0.93603515625,-0.2490234375,9.58251953125,-8.11767578125,-5.7373046875,71
2021-06-17 12:25:55.986688,0.4068603515625,0.9234619140625,-0.285400390625,-1.52587890625,-7.4462890625,-1.77001953125,62
2021-06-17 12:25:56.079754,0.4337158203125,0.957763671875,-0.2093505859375,5.43212890625,-7.32421875,-4.69970703125,62
2021-06-17 12:25:56.142253,0.3836669921875,0.9163818359375,-0.236572265625,7.99560546875,-13.3056640625,-2.8076171875,61
2021-06-17 12:25:56.204785,0.417236328125,0.9053955078125,-0.250244140625,-0.42724609375,-13.427734375,-2.197265625,63
2021-06-17 12:25:56.266781,0.40625,0.915283203125,-0.197265625,-2.9296875,-12.939453125,-6.28662109375,70
2021-06-17 12:25:56.331171,0.373779296875,0.90380859375,-0.2386474609375,0.244140625,-15.7470703125,-2.74658203125,73
2021-06-17 12:25:56.393068,0.3984375,0.8590087890625,-0.2138671875,-1.28173828125,-14.892578125,5.67626953125,64
2021-06-17 12:25:56.455558,0.3494873046875,0.843994140625,-0.2178955078125,-10.07080078125,-12.6953125,3.60107421875,69
2021-06-17 12:25:56.517082,0.34521484375,0.8533935546875,-0.2166748046875,-13.85498046875,-10.986328125,4.45556640625,73
2021-06-17 12:25:56.611063,0.3233642578125,0.860107421875,-0.2322998046875,3.7841796875,-6.591796875,0.3662109375,74
2021-06-17 12:25:56.673259,0.3155517578125,0.849365234375,-0.24462890625,-2.9296875,2.74658203125,0.732421875,62
2021-06-17 12:25:56.766136,0.2783203125,0.8671875,-0.23193359375,-0.3662109375,5.9814453125,-0.6103515625,69
2021-06-17 12:25:56.828792,0.2491455078125,0.840576171875,-0.259521484375,11.71875,6.53076171875,-0.42724609375,68
2021-06-17 12:25:56.891107,0.244384765625,0.82275390625,-0.3040771484375,9.27734375,6.77490234375,3.90625,67
2021-06-17 12:25:56.953645,0.309814453125,0.8089599609375,-0.339599609375,-8.7890625,5.06591796875,8.23974609375,68
2021-06-17 12:25:57.016239,0.29248046875,0.928955078125,-0.3497314453125,-34.60693359375,4.45556640625,7.6904296875,74
2021-06-17 12:25:57.079342,0.2452392578125,1.03466796875,-0.2724609375,-16.9677734375,-11.8408203125,3.0517578125,69
2021-06-17 12:25:57.142973,0.2470703125,0.9815673828125,-0.234375,16.845703125,-19.22607421875,1.15966796875,73
2021-06-17 12:25:57.204750,0.2259521484375,0.970458984375,-0.1763916015625,22.52197265625,-13.85498046875,-3.96728515625,67
2021-06-17 12:25:57.298015,0.2471923828125,0.95751953125,-0.1129150390625,24.658203125,-11.53564453125,-4.5166015625,65
2021-06-17 12:25:57.360937,0.314697265625,1.0220947265625,-0.0604248046875,17.08984375,-7.14111328125,-7.26318359375,63
2021-06-17 12:25:57.423580,0.318603515625,0.90234375,-0.0445556640625,34.85107421875,3.60107421875,-6.591796875,64
2021-06-17 12:25:57.485603,0.45458984375,0.92578125,-0.1414794921875,20.20263671875,8.60595703125,-16.4794921875,61
2021-06-17 12:25:57.547996,0.4835205078125,0.9263916015625,-0.1253662109375,30.029296875,16.4794921875,-24.4140625,68
2021-06-17 12:25:57.609731,0.425537109375,0.6903076171875,-0.2122802734375,45.47119140625,15.2587890625,-22.8271484375,57
2021-06-17 12:25:57.673231,0.3525390625,0.59521484375,-0.21337890625,32.8369140625,24.169921875,-25.2685546875,53
2021-06-17 12:25:57.735116,0.573486328125,0.6607666015625,-0.221923828125,37.29248046875,9.94873046875,-22.5830078125,47
2021-06-17 12:25:57.798692,0.8643798828125,0.8846435546875,-0.3204345703125,38.51318359375,-22.8271484375,-59.75341796875,40
2021-06-17 12:25:57.852737,0.232421875,0.7054443359375,-0.572509765625,85.5712890625,-17.08984375,-45.0439453125,59
2021-06-17 12:25:57.915403,0.3680419921875,0.8603515625,-0.484375,-20.56884765625,-14.95361328125,-35.70556640625,64
2021-06-17 12:25:57.982117,0.1455078125,1.02392578125,-0.441162109375,-28.74755859375,-13.00048828125,-28.99169921875,58
2021-06-17 12:25:58.044242,0.1195068359375,0.97314453125,-0.26513671875,-30.8837890625,-15.7470703125,-26.0009765625,72
