arrival_time,acc_x,acc_y,acc_z,rot_x,rot_y,rot_z,ir_dist
2021-06-17 12:27:13.341470,0.8287353515625,0.58056640625,0.04052734375,1.708984375,-5.37109375,-1.5869140625,64
2021-06-17 12:27:13.421437,0.8216552734375,0.589599609375,0.0467529296875,2.13623046875,-4.82177734375,-0.79345703125,69
2021-06-17 12:27:13.501366,0.831298828125,0.5849609375,0.040771484375,4.94384765625,-5.67626953125,-1.953125,64
2021-06-17 12:27:13.581077,0.8360595703125,0.589599609375,0.040283203125,4.2724609375,-5.79833984375,-2.74658203125,66
2021-06-17 12:27:13.661296,0.8314208984375,0.5855712890625,0.036865234375,3.7841796875,-5.31005859375,-2.01416015625,64
2021-06-17 12:27:13.741106,0.8297119140625,0.591552734375,0.0301513671875,4.2724609375,-5.31005859375,-3.2958984375,67
2021-06-17 12:27:13.861746,0.83642578125,0.5953369140625,0.03076171875,5.79833984375,-6.04248046875,-2.99072265625,61
2021-06-17 12:27:13.941202,0.83349609375,0.5875244140625,0.010986328125,6.591796875,-8.056640625,-3.84521484375,68
2021-06-17 12:27:14.021225,0.8389892578125,0.5869140625,0.0079345703125,3.2958984375,-7.2021484375,-3.72314453125,67
2021-06-17 12:27:14.101560,0.8348388671875,0.582275390625,0.0123291015625,1.708984375,-8.9111328125,-4.08935546875,63
2021-06-17 12:27:14.181236,0.8333740234375,0.5811767578125,0.0125732421875,0.67138671875,-9.46044921875,-5.859375,67
2021-06-17 12:27:14.261165,0.83935546875,0.5841064453125,0.0130615234375,-0.67138671875,-9.70458984375,-5.31005859375,68
2021-06-17 12:27:14.381342,0.8271484375,0.58544921875,0.0101318359375,-0.42724609375,-10.92529296875,-4.45556640625,73
2021-06-17 12:27:14.461506,0.824951171875,0.5869140625,0.011474609375,-1.40380859375,-11.474609375,-5.4931640625,76
2021-06-17 12:27:14.541503,0.829833984375,0.591064453125,0.00732421875,-1.15966796875,-10.986328125,-6.103515625,78
2021-06-17 12:27:14.621310,0.8216552734375,0.59228515625,0.005859375,-1.8310546875,-11.474609375,-6.2255859375,73
2021-06-17 12:27:14.701658,0.8201904296875,0.585205078125,0.013671875,-2.8076171875,-10.43701171875,-6.7138671875,73
2021-06-17 12:27:14.781488,0.818359375,0.585693359375,0.0372314453125,2.50244140625,-10.43701171875,-9.21630859375,67
2021-06-17 12:27:14.901308,0.7783203125,0.612548828125,-0.0009765625,12.939453125,-10.009765625,-10.25390625,82
2021-06-17 12:27:14.981072,0.80224609375,0.6458740234375,-0.0029296875,6.40869140625,-9.94873046875,-19.71435546875,71
2021-06-17 12:27:15.061231,0.8095703125,0.6097412109375,-0.011962890625,5.67626953125,-14.0380859375,-24.90234375,69
2021-06-17 12:27:15.141296,0.8001708984375,0.618408203125,-0.00634765625,0.30517578125,-15.625,-29.96826171875,73
2021-06-17 12:27:15.221048,0.7568359375,0.651611328125,-0.00634765625,-7.6904296875,-21.54541015625,-30.33447265625,69
2021-06-17 12:27:15.301089,0.697021484375,0.659912109375,0.01416015625,-9.21630859375,-27.52685546875,-31.005859375,63
2021-06-17 12:27:15.381286,0.6676025390625,0.7181396484375,0.0045166015625,0.3662109375,-29.052734375,-37.59765625,66
2021-06-17 12:27:15.461211,0.6724853515625,0.731689453125,-0.041748046875,-0.3662109375,-27.9541015625,-35.2783203125,69
2021-06-17 12:27:15.541377,0.678466796875,0.8125,-0.1080322265625,0.30517578125,-21.54541015625,-19.95849609375,87
2021-06-17 12:27:15.621452,0.6173095703125,0.773681640625,-0.1199951171875,8.056640625,-13.24462890625,-12.63427734375,126
2021-06-17 12:27:15.701051,0.6597900390625,0.76416015625,-0.1025390625,11.90185546875,-0.8544921875,-11.65771484375,124
2021-06-17 12:27:15.781487,0.686279296875,0.812744140625,-0.144287109375,7.01904296875,-2.5634765625,-16.90673828125,129
2021-06-17 12:27:15.861139,0.6256103515625,0.7982177734375,-0.1678466796875,8.056640625,-0.79345703125,-4.08935546875,138
2021-06-17 12:27:15.981432,0.63916015625,0.7769775390625,-0.138916015625,9.521484375,7.26318359375,-0.48828125,129
2021-06-17 12:27:16.061032,0.6326904296875,0.809326171875,-0.1778564453125,6.103515625,1.5869140625,-1.40380859375,124
2021-06-17 12:27:16.141359,0.6072998046875,0.7884521484375,-0.159912109375,9.58251953125,1.64794921875,2.86865234375,114
2021-06-17 12:27:16.221266,0.593017578125,0.7811279296875,-0.156005859375,12.3291015625,6.8359375,4.150390625,110
2021-06-17 12:27:16.301302,0.5987548828125,0.7542724609375,-0.15966796875,10.19287109375,8.36181640625,6.77490234375,87
2021-06-17 12:27:16.461094,0.6298828125,0.68603515625,-0.16748046875,3.11279296875,-1.220703125,-1.03759765625,76
2021-06-17 12:27:16.541239,0.6707763671875,0.7203369140625,-0.19921875,-2.8076171875,-3.60107421875,-4.94384765625,78
2021-06-17 12:27:16.621359,0.68408203125,0.718017578125,-0.11865234375,1.46484375,-6.89697265625,-3.2958984375,78
2021-06-17 12:27:16.701377,0.733154296875,0.7572021484375,-0.1124267578125,-6.28662109375,-12.51220703125,-5.55419921875,73
2021-06-17 12:27:16.781325,0.604248046875,0.8145751953125,-0.072265625,-18.61572265625,-25.20751953125,-6.40869140625,73
2021-06-17 12:27:16.861358,0.6055908203125,0.8092041015625,-0.0042724609375,4.150390625,-15.19775390625,-4.57763671875,71
2021-06-17 12:27:16.940901,0.721923828125,0.8509521484375,-0.073974609375,6.16455078125,-18.1884765625,-23.681640625,71
2021-06-17 12:27:17.021211,0.6544189453125,0.82177734375,-0.1358642578125,5.9814453125,-28.564453125,-18.1884765625,73
2021-06-17 12:27:17.091392,0.5845947265625,0.804443359375,-0.15087890625,9.8876953125,-25.08544921875,-10.31494140625,102
2021-06-17 12:27:17.181433,0.545654296875,0.9100341796875,-0.216064453125,4.21142578125,-39.1845703125,-23.681640625,119
2021-06-17 12:27:17.261349,0.5894775390625,0.893310546875,-0.2506103515625,11.3525390625,-44.189453125,-27.64892578125,135
2021-06-17 12:27:17.331260,0.552001953125,0.8358154296875,-0.3101806640625,18.49365234375,-46.875,-26.611328125,147
2021-06-17 12:27:17.407430,0.5059814453125,0.8297119140625,-0.30712890625,13.61083984375,-49.13330078125,-27.16064453125,172
2021-06-17 12:27:17.471594,0.4822998046875,0.8604736328125,-0.3326416015625,5.79833984375,-52.18505859375,-30.76171875,168
2021-06-17 12:27:17.551266,0.3900146484375,0.7998046875,-0.3070068359375,3.60107421875,-52.79541015625,-22.4609375,147
2021-06-17 12:27:17.631080,0.380859375,0.8388671875,-0.3248291015625,-7.32421875,-53.955078125,-26.123046875,270
2021-06-17 12:27:17.711204,0.300537109375,0.821044921875,-0.33984375,-12.14599609375,-52.79541015625,-22.27783203125,172
2021-06-17 12:27:17.791258,0.2359619140625,0.838623046875,-0.3380126953125,-21.1181640625,-44.37255859375,-14.95361328125,172
2021-06-17 12:27:17.871343,0.2032470703125,0.8614501953125,-0.353515625,-11.04736328125,-38.75732421875,-13.00048828125,187
2021-06-17 12:27:17.951530,0.2177734375,0.8614501953125,-0.3211669921875,-4.82177734375,-43.39599609375,-12.939453125,226
2021-06-17 12:27:18.031211,0.1690673828125,0.872314453125,-0.3385009765625,1.40380859375,-39.36767578125,-5.79833984375,168
2021-06-17 12:27:18.111442,0.18310546875,0.8499755859375,-0.370849609375,2.99072265625,-30.029296875,3.173828125,168
2021-06-17 12:27:18.191177,0.05224609375,0.775390625,-0.3221435546875,-1.52587890625,-21.97265625,3.84521484375,409
2021-06-17 12:27:18.271350,0.0721435546875,0.76513671875,-0.3428955078125,-4.08935546875,-23.86474609375,0.67138671875,155
2021-06-17 12:27:18.351555,0.1612548828125,0.7681884765625,-0.37890625,-0.732421875,-28.80859375,-0.06103515625,218
2021-06-17 12:27:18.431322,0.8409423828125,0.9522705078125,-0.342529296875,-19.04296875,-33.3251953125,-21.17919921875,112
2021-06-17 12:27:18.511842,0.59765625,0.988037109375,-0.4276123046875,0.18310546875,3.173828125,20.3857421875,176
2021-06-17 12:27:18.591319,0.8214111328125,0.976318359375,-0.3585205078125,-1.3427734375,6.89697265625,10.986328125,218
2021-06-17 12:27:18.671099,0.7724609375,0.96923828125,-0.330810546875,-1.46484375,8.11767578125,12.0849609375,241
2021-06-17 12:27:18.791485,0.635498046875,0.9915771484375,-0.357177734375,-5.18798828125,8.9111328125,10.498046875,241
2021-06-17 12:27:18.871537,0.380615234375,0.8218994140625,-0.337646484375,1.220703125,16.6015625,17.51708984375,110
2021-06-17 12:27:18.991245,0.3094482421875,0.7733154296875,-0.4232177734375,-3.41796875,17.7001953125,16.2353515625,155
2021-06-17 12:27:19.071333,0.228271484375,0.70556640625,-0.4144287109375,-7.4462890625,13.73291015625,14.16015625,151
2021-06-17 12:27:19.151079,0.123779296875,0.6917724609375,-0.4188232421875,-14.5263671875,5.37109375,9.46044921875,121
2021-06-17 12:27:19.231388,0.0972900390625,0.62158203125,-0.41650390625,-13.00048828125,-0.79345703125,3.96728515625,99
2021-06-17 12:27:19.311199,0.2469482421875,0.71337890625,-0.464111328125,-20.69091796875,-20.01953125,0.9765625,88
2021-06-17 12:27:19.400847,0.4906005859375,0.813232421875,-0.2459716796875,-5.67626953125,-30.57861328125,7.50732421875,99
2021-06-17 12:27:19.521125,0.7493896484375,0.9080810546875,-0.3809814453125,10.80322265625,-4.0283203125,24.4140625,100
2021-06-17 12:27:19.601094,0.6949462890625,0.788818359375,-0.300537109375,25.57373046875,-6.53076171875,36.31591796875,79
2021-06-17 12:27:19.681152,0.634521484375,0.87060546875,-0.3701171875,-13.48876953125,-14.2822265625,33.3251953125,82
2021-06-17 12:27:19.761047,0.727783203125,0.850830078125,-0.288330078125,-8.9111328125,-11.53564453125,29.47998046875,77
2021-06-17 12:27:19.841470,0.6490478515625,0.7606201171875,-0.2877197265625,-2.01416015625,-16.2353515625,33.63037109375,71
2021-06-17 12:27:19.921256,0.5889892578125,0.729248046875,-0.25732421875,-3.96728515625,-8.48388671875,38.26904296875,69
2021-06-17 12:27:20.001078,0.6964111328125,0.7169189453125,-0.3128662109375,-4.33349609375,-7.14111328125,25.20751953125,70
2021-06-17 12:27:20.081014,0.5994873046875,0.672119140625,-0.308349609375,3.84521484375,-10.7421875,27.64892578125,66
2021-06-17 12:27:20.161384,0.6590576171875,0.6158447265625,-0.3031005859375,13.12255859375,-13.36669921875,21.05712890625,66
2021-06-17 12:27:20.241264,0.6788330078125,0.626708984375,-0.343017578125,10.986328125,-18.310546875,17.2119140625,70
2021-06-17 12:27:20.321092,0.6434326171875,0.6334228515625,-0.33935546875,14.7705078125,-14.892578125,23.193359375,76
2021-06-17 12:27:20.401125,0.69091796875,0.6488037109375,-0.3604736328125,13.00048828125,-18.06640625,19.6533203125,72
2021-06-17 12:27:20.472129,0.6622314453125,0.661376953125,-0.4202880859375,21.3623046875,-13.671875,22.216796875,78
2021-06-17 12:27:20.523501,0.6795654296875,0.6314697265625,-0.4583740234375,17.27294921875,-14.6484375,21.42333984375,79
2021-06-17 12:27:20.585000,0.6875,0.59130859375,-0.441162109375,17.15087890625,-18.12744140625,19.04296875,74
2021-06-17 12:27:20.648365,0.6947021484375,0.6461181640625,-0.459228515625,7.568359375,-16.6015625,18.37158203125,74
2021-06-17 12:27:20.710745,0.6610107421875,0.637451171875,-0.4595947265625,5.92041015625,-17.333984375,16.54052734375,74
2021-06-17 12:27:20.773139,0.6817626953125,0.5855712890625,-0.465087890625,9.033203125,-17.39501953125,18.798828125,78
2021-06-17 12:27:20.835582,0.6962890625,0.618408203125,-0.456787109375,1.52587890625,-17.51708984375,15.0146484375,78
2021-06-17 12:27:20.897084,0.645263671875,0.58984375,-0.543701171875,-5.37109375,-20.5078125,17.08984375,96
2021-06-17 12:27:20.958953,0.6883544921875,0.5716552734375,-0.47705078125,-0.18310546875,-19.34814453125,16.17431640625,77
2021-06-17 12:27:21.021845,0.7071533203125,0.5753173828125,-0.461181640625,1.15966796875,-20.8740234375,13.97705078125,78
2021-06-17 12:27:21.083628,0.681884765625,0.5711669921875,-0.4683837890625,7.080078125,-16.9677734375,17.63916015625,93
2021-06-17 12:27:21.145323,0.682861328125,0.523681640625,-0.4638671875,9.58251953125,-16.05224609375,17.76123046875,108
2021-06-17 12:27:21.207270,0.73583984375,0.5238037109375,-0.4827880859375,6.7138671875,-17.51708984375,15.31982421875,116
2021-06-17 12:27:21.269532,0.746337890625,0.5250244140625,-0.5057373046875,5.7373046875,-16.845703125,14.70947265625,100
