arrival_time,acc_x,acc_y,acc_z,rot_x,rot_y,rot_z,ir_dist
2021-06-16 15:31:59.007668,0.520751953125,0.594970703125,-0.6251220703125,-3.60107421875,-3.23486328125,-0.91552734375,70
2021-06-16 15:31:59.069832,0.4915771484375,0.5706787109375,-0.60302734375,0.1220703125,-4.7607421875,-0.54931640625,106
2021-06-16 15:31:59.131883,0.4920654296875,0.5931396484375,-0.598876953125,-2.8076171875,-2.74658203125,-1.03759765625,94
2021-06-16 15:31:59.193521,0.497802734375,0.593017578125,-0.5980224609375,0.8544921875,-2.38037109375,-0.244140625,73
2021-06-16 15:31:59.256110,0.5069580078125,0.580322265625,-0.6195068359375,-2.9296875,-2.86865234375,1.3427734375,75
2021-06-16 15:31:59.318426,0.5003662109375,0.586669921875,-0.594482421875,-2.5634765625,-3.2958984375,0.30517578125,99
2021-06-16 15:31:59.380775,0.4981689453125,0.5726318359375,-0.5970458984375,-3.2958984375,-2.44140625,1.40380859375,96
2021-06-16 15:31:59.444059,0.5325927734375,0.57373046875,-0.5987548828125,-3.5400390625,-3.173828125,1.953125,82
2021-06-16 15:31:59.506617,0.5142822265625,0.5843505859375,-0.593994140625,-1.03759765625,-3.41796875,2.44140625,96
2021-06-16 15:31:59.568972,0.5062255859375,0.583251953125,-0.5921630859375,-0.244140625,-2.8076171875,2.38037109375,102
2021-06-16 15:31:59.631323,0.528076171875,0.5947265625,-0.5955810546875,-0.732421875,-3.173828125,2.9296875,100
2021-06-16 15:31:59.693724,0.4898681640625,0.5921630859375,-0.5931396484375,2.50244140625,-3.47900390625,2.3193359375,90
2021-06-16 15:31:59.753994,0.498046875,0.588623046875,-0.5894775390625,3.0517578125,-0.79345703125,1.953125,102
2021-06-16 15:31:59.815885,0.5234375,0.5772705078125,-0.5938720703125,1.52587890625,-1.8310546875,0.6103515625,132
2021-06-16 15:31:59.909185,0.5142822265625,0.5792236328125,-0.5863037109375,0.1220703125,-2.0751953125,1.708984375,108
2021-06-16 15:31:59.970302,0.5291748046875,0.5704345703125,-0.601318359375,0.8544921875,-1.46484375,2.0751953125,84
2021-06-16 15:32:00.032259,0.5289306640625,0.5762939453125,-0.5894775390625,-0.6103515625,-2.44140625,1.220703125,84
2021-06-16 15:32:00.094895,0.5369873046875,0.5860595703125,-0.5987548828125,-0.3662109375,-2.0751953125,1.953125,114
2021-06-16 15:32:00.156361,0.5333251953125,0.5662841796875,-0.59375,2.01416015625,-2.5634765625,1.77001953125,85
2021-06-16 15:32:00.218614,0.5364990234375,0.587646484375,-0.586181640625,1.0986328125,-2.50244140625,1.3427734375,67
2021-06-16 15:32:00.279975,0.536865234375,0.59033203125,-0.601318359375,2.50244140625,-3.11279296875,1.52587890625,59
2021-06-16 15:32:00.340871,0.517333984375,0.5721435546875,-0.5831298828125,3.47900390625,-3.47900390625,0.91552734375,69
2021-06-16 15:32:00.402661,0.5394287109375,0.5792236328125,-0.6021728515625,-0.1220703125,-1.52587890625,1.03759765625,104
2021-06-16 15:32:00.464142,0.5516357421875,0.5841064453125,-0.5904541015625,1.953125,-2.5634765625,0.1220703125,54
2021-06-16 15:32:00.526068,0.521484375,0.56640625,-0.591064453125,0.9765625,-2.197265625,0.67138671875,69
2021-06-16 15:32:00.589010,0.5548095703125,0.5792236328125,-0.593017578125,-0.48828125,-2.197265625,0.244140625,108
2021-06-16 15:32:00.651630,0.5330810546875,0.5693359375,-0.5804443359375,1.5869140625,-2.86865234375,0.48828125,70
2021-06-16 15:32:00.714505,0.536865234375,0.562744140625,-0.593017578125,-0.1220703125,-3.0517578125,1.46484375,52
2021-06-16 15:32:00.775762,0.5462646484375,0.5775146484375,-0.589599609375,2.25830078125,-2.99072265625,0.244140625,76
2021-06-16 15:32:00.838650,0.52294921875,0.55322265625,-0.58056640625,1.77001953125,-2.0751953125,1.03759765625,73
2021-06-16 15:32:00.901206,0.54931640625,0.57177734375,-0.5916748046875,1.77001953125,-1.220703125,0.67138671875,60
2021-06-16 15:32:00.963533,0.56201171875,0.581787109375,-0.59423828125,1.220703125,-3.47900390625,-0.18310546875,56
2021-06-16 15:32:01.025789,0.5457763671875,0.548583984375,-0.5858154296875,-1.220703125,-4.8828125,2.50244140625,61
2021-06-16 15:32:01.088582,0.58349609375,0.5501708984375,-0.6094970703125,-3.47900390625,-7.32421875,2.62451171875,67
2021-06-16 15:32:01.151088,0.5679931640625,0.6082763671875,-0.616943359375,-3.2958984375,-10.43701171875,-0.8544921875,64
2021-06-16 15:32:01.213389,0.5228271484375,0.59423828125,-0.594482421875,-0.732421875,-11.474609375,-1.708984375,73
2021-06-16 15:32:01.275967,0.5660400390625,0.628662109375,-0.67431640625,3.2958984375,-19.287109375,-5.67626953125,73
2021-06-16 15:32:01.337759,0.5201416015625,0.638427734375,-0.6785888671875,9.765625,-26.42822265625,-9.46044921875,93
2021-06-16 15:32:01.400400,0.4847412109375,0.6484375,-0.664794921875,17.2119140625,-31.6162109375,-18.61572265625,58
2021-06-16 15:32:01.463587,0.474609375,0.6771240234375,-0.6995849609375,17.7001953125,-36.7431640625,-27.34375,60
2021-06-16 15:32:01.525856,0.412109375,0.66845703125,-0.7354736328125,14.58740234375,-49.6826171875,-40.10009765625,79
2021-06-16 15:32:01.588311,0.3612060546875,0.6907958984375,-0.731689453125,15.5029296875,-55.5419921875,-47.7294921875,64
2021-06-16 15:32:01.683141,0.29345703125,0.693115234375,-0.782958984375,1.89208984375,-61.95068359375,-55.60302734375,110
2021-06-16 15:32:01.745261,0.23974609375,0.638671875,-0.7613525390625,2.99072265625,-67.81005859375,-58.04443359375,81
2021-06-16 15:32:01.806930,0.128662109375,0.65380859375,-0.7689208984375,0.42724609375,-68.7255859375,-55.7861328125,108
2021-06-16 15:32:01.868309,0.1173095703125,0.6697998046875,-0.786376953125,5.55419921875,-68.17626953125,-60.9130859375,93
2021-06-16 15:32:01.930411,-0.0054931640625,0.6353759765625,-0.7508544921875,10.68115234375,-66.83349609375,-66.162109375,102
2021-06-16 15:32:01.991791,-0.05615234375,0.6160888671875,-0.7186279296875,17.4560546875,-62.19482421875,-70.98388671875,84
2021-06-16 15:32:02.053820,-0.1202392578125,0.6016845703125,-0.7288818359375,18.5546875,-54.87060546875,-78.7353515625,73
2021-06-16 15:32:02.147627,-0.096435546875,0.5821533203125,-0.708251953125,18.61572265625,-47.36328125,-82.6416015625,74
2021-06-16 15:32:02.209432,-0.15625,0.63671875,-0.678955078125,23.98681640625,-45.47119140625,-87.82958984375,87
2021-06-16 15:32:02.270986,-0.1654052734375,0.529296875,-0.65478515625,24.169921875,-37.2314453125,-80.6884765625,88
2021-06-16 15:32:02.333478,-0.25,0.587646484375,-0.68798828125,12.39013671875,-32.77587890625,-83.55712890625,81
2021-06-16 15:32:02.396255,-0.324951171875,0.4716796875,-0.6331787109375,10.7421875,-22.52197265625,-79.833984375,53
2021-06-16 15:32:02.458178,-0.337890625,0.4365234375,-0.7274169921875,-2.13623046875,-13.7939453125,-76.96533203125,32
2021-06-16 15:32:02.520996,-0.279541015625,0.472900390625,-0.76171875,-11.04736328125,-15.869140625,-83.3740234375,26
2021-06-16 15:32:02.583733,-0.3394775390625,0.3912353515625,-0.681396484375,-9.21630859375,-10.68115234375,-79.58984375,25
2021-06-16 15:32:02.645692,-0.3680419921875,0.347412109375,-0.7528076171875,-12.0849609375,-12.26806640625,-78.43017578125,23
2021-06-16 15:32:02.707898,-0.3726806640625,0.3289794921875,-0.722900390625,-11.65771484375,-14.6484375,-83.0078125,24
2021-06-16 15:32:02.770393,-0.37939453125,0.2923583984375,-0.7928466796875,0.244140625,-10.80322265625,-87.158203125,24
2021-06-16 15:32:02.832037,-0.4686279296875,0.0859375,-0.7142333984375,-4.57763671875,-11.53564453125,-85.63232421875,21
2021-06-16 15:32:02.894767,-0.514892578125,0.1649169921875,-0.678955078125,-14.16015625,-4.45556640625,-81.48193359375,22
2021-06-16 15:32:02.957393,-0.52783203125,0.1824951171875,-0.7843017578125,-13.12255859375,-2.197265625,-81.72607421875,21
2021-06-16 15:32:03.019554,-0.635009765625,0.015625,-0.687744140625,-25.45166015625,5.615234375,-77.81982421875,21
2021-06-16 15:32:03.081947,-0.572021484375,0.1444091796875,-0.748046875,-31.1279296875,10.986328125,-69.091796875,21
2021-06-16 15:32:03.144642,-0.5703125,0.143798828125,-0.7823486328125,-23.681640625,12.5732421875,-61.8896484375,21
2021-06-16 15:32:03.206180,-0.6341552734375,0.018310546875,-0.79150390625,-13.85498046875,6.65283203125,-43.27392578125,21
2021-06-16 15:32:03.268256,-0.6787109375,0.0423583984375,-0.7108154296875,-5.18798828125,5.43212890625,-31.92138671875,21
2021-06-16 15:32:03.329997,-0.6668701171875,-0.041015625,-0.7821044921875,1.03759765625,10.92529296875,-22.94921875,20
2021-06-16 15:32:03.391655,-0.67626953125,-0.017822265625,-0.76904296875,-18.1884765625,11.474609375,-7.62939453125,21
2021-06-16 15:32:03.454191,-0.6885986328125,-0.0006103515625,-0.7880859375,-7.99560546875,10.25390625,13.85498046875,20
2021-06-16 15:32:03.516541,-0.6375732421875,0.0521240234375,-0.8612060546875,-7.14111328125,10.6201171875,25.93994140625,21
2021-06-16 15:32:03.576940,-0.5811767578125,0.084228515625,-0.848876953125,-8.7890625,0.91552734375,28.74755859375,21
2021-06-16 15:32:03.638835,-0.6800537109375,0.103515625,-0.8167724609375,7.4462890625,-5.7373046875,41.6259765625,22
2021-06-16 15:32:03.701644,-0.6016845703125,0.0762939453125,-0.8564453125,10.31494140625,-3.7841796875,43.5791015625,22
2021-06-16 15:32:03.763586,-0.5955810546875,0.11962890625,-0.791259765625,5.4931640625,-8.48388671875,40.46630859375,21
2021-06-16 15:32:03.824361,-0.6207275390625,0.110595703125,-0.769287109375,9.6435546875,-6.40869140625,52.30712890625,23
2021-06-16 15:32:03.887365,-0.534912109375,0.1619873046875,-0.7467041015625,-3.173828125,-4.39453125,49.62158203125,24
2021-06-16 15:32:03.949011,-0.574462890625,0.220947265625,-0.7293701171875,-7.38525390625,-2.25830078125,50.96435546875,25
2021-06-16 15:32:04.025846,-0.497314453125,0.2327880859375,-0.8001708984375,5.79833984375,-2.8076171875,59.4482421875,24
2021-06-16 15:32:04.087656,-0.4864501953125,0.262939453125,-0.7691650390625,3.11279296875,-3.662109375,55.908203125,27
2021-06-16 15:32:04.149593,-0.5313720703125,0.2314453125,-0.7572021484375,4.2724609375,-1.5869140625,55.17578125,30
2021-06-16 15:32:04.212479,-0.410888671875,0.302001953125,-0.8173828125,3.11279296875,-3.0517578125,59.26513671875,40
2021-06-16 15:32:04.274791,-0.414794921875,0.3280029296875,-0.775390625,-5.4931640625,-6.16455078125,54.38232421875,59
2021-06-16 15:32:04.336891,-0.4776611328125,0.3529052734375,-0.7982177734375,-5.31005859375,-4.0283203125,58.4716796875,82
2021-06-16 15:32:04.399199,-0.3594970703125,0.3587646484375,-0.7525634765625,-6.103515625,-1.77001953125,56.0302734375,159
2021-06-16 15:32:04.462169,-0.40283203125,0.4337158203125,-0.7904052734375,-7.01904296875,-1.15966796875,52.67333984375,176
2021-06-16 15:32:04.523184,-0.337890625,0.4403076171875,-0.7554931640625,0.0,-2.86865234375,53.3447265625,181
2021-06-16 15:32:04.585407,-0.378173828125,0.4276123046875,-0.71728515625,-2.5634765625,-2.13623046875,52.55126953125,126
2021-06-16 15:32:04.647582,-0.3291015625,0.4940185546875,-0.7720947265625,-5.7373046875,2.197265625,51.08642578125,112
2021-06-16 15:32:04.709900,-0.2637939453125,0.4725341796875,-0.7327880859375,5.55419921875,2.3193359375,48.76708984375,102
2021-06-16 15:32:04.773573,-0.319091796875,0.442626953125,-0.7110595703125,-14.09912109375,11.8408203125,48.2177734375,94
2021-06-16 15:32:04.834479,-0.2344970703125,0.508544921875,-0.7557373046875,-5.126953125,17.2119140625,46.32568359375,168
2021-06-16 15:32:04.896686,-0.1884765625,0.493896484375,-0.70556640625,-8.6669921875,20.69091796875,43.45703125,102
2021-06-16 15:32:04.959276,-0.17724609375,0.557861328125,-0.7760009765625,-15.7470703125,23.25439453125,47.66845703125,102
2021-06-16 15:32:05.020620,-0.0406494140625,0.5687255859375,-0.7420654296875,-10.986328125,21.484375,50.35400390625,100
2021-06-16 15:32:05.082199,-0.160400390625,0.496337890625,-0.69384765625,-27.34375,27.52685546875,53.52783203125,85
2021-06-16 15:32:05.144383,-0.0013427734375,0.5897216796875,-0.7330322265625,-30.1513671875,31.6162109375,55.96923828125,85
2021-06-16 15:32:05.206955,0.0859375,0.5823974609375,-0.6661376953125,-30.82275390625,30.57861328125,61.46240234375,62
2021-06-16 15:32:05.269312,0.03662109375,0.6466064453125,-0.71337890625,-23.4375,29.6630859375,71.71630859375,91
2021-06-16 15:32:05.331976,0.1578369140625,0.5936279296875,-0.6270751953125,-19.53125,29.11376953125,77.08740234375,75
2021-06-16 15:32:05.393270,0.0093994140625,0.5450439453125,-0.6195068359375,-28.1982421875,41.259765625,80.56640625,72
2021-06-16 15:32:05.455375,0.3563232421875,0.6624755859375,-0.6669921875,-17.88330078125,41.9921875,81.298828125,87
2021-06-16 15:32:05.516180,0.1832275390625,0.603271484375,-0.6578369140625,-27.16064453125,50.537109375,84.16748046875,93
2021-06-16 15:32:05.577975,0.34716796875,0.6451416015625,-0.597412109375,-1.89208984375,51.20849609375,84.3505859375,116
2021-06-16 15:32:05.639953,0.452392578125,0.6490478515625,-0.6099853515625,-11.53564453125,47.79052734375,86.669921875,141
2021-06-16 15:32:05.701823,0.5308837890625,0.6392822265625,-0.576171875,-14.34326171875,47.119140625,79.16259765625,144
2021-06-16 15:32:05.764399,0.750244140625,0.6571044921875,-0.630126953125,-9.21630859375,33.26416015625,78.43017578125,121
2021-06-16 15:32:05.825815,0.75634765625,0.6988525390625,-0.634765625,-2.3193359375,19.71435546875,63.4765625,104
2021-06-16 15:32:05.888048,0.5716552734375,0.6488037109375,-0.569091796875,2.13623046875,18.85986328125,49.49951171875,151
2021-06-16 15:32:05.950208,0.7271728515625,0.787109375,-0.5740966796875,10.1318359375,17.02880859375,30.33447265625,187
2021-06-16 15:32:06.012395,0.622314453125,0.6763916015625,-0.5672607421875,15.5029296875,10.8642578125,25.32958984375,141
2021-06-16 15:32:06.074239,0.6400146484375,0.6971435546875,-0.5404052734375,10.7421875,9.70458984375,8.72802734375,70
2021-06-16 15:32:06.136845,0.6646728515625,0.5970458984375,-0.5582275390625,3.0517578125,2.9296875,11.23046875,121
2021-06-16 15:32:06.200074,0.666259765625,0.5498046875,-0.558349609375,1.40380859375,0.0,2.197265625,163
2021-06-16 15:32:06.261441,0.6190185546875,0.5272216796875,-0.55126953125,6.2255859375,0.30517578125,-0.9765625,90
2021-06-16 15:32:06.322061,0.702392578125,0.5484619140625,-0.6114501953125,-3.23486328125,-1.220703125,-5.18798828125,114
2021-06-16 15:32:06.383230,0.6002197265625,0.494140625,-0.56591796875,-1.708984375,-4.33349609375,-6.7138671875,119
2021-06-16 15:32:06.445548,0.6302490234375,0.5400390625,-0.5721435546875,-1.40380859375,-2.86865234375,-8.97216796875,121
2021-06-16 15:32:06.508113,0.6549072265625,0.529541015625,-0.5662841796875,2.25830078125,-3.35693359375,-13.24462890625,168
2021-06-16 15:32:06.569721,0.6485595703125,0.4932861328125,-0.587158203125,7.32421875,-9.58251953125,-8.7890625,187
2021-06-16 15:32:06.632130,0.67431640625,0.544677734375,-0.58251953125,9.6435546875,-13.61083984375,-10.55908203125,83
2021-06-16 15:32:06.694722,0.591552734375,0.4990234375,-0.5416259765625,16.78466796875,-12.63427734375,-13.36669921875,119
2021-06-16 15:32:06.757123,0.6932373046875,0.5455322265625,-0.6072998046875,15.869140625,-16.357421875,-13.18359375,138
2021-06-16 15:32:06.819212,0.6607666015625,0.534912109375,-0.588623046875,22.705078125,-23.62060546875,-15.44189453125,75
2021-06-16 15:32:06.881050,0.5889892578125,0.544189453125,-0.6260986328125,20.1416015625,-24.84130859375,-15.80810546875,96
2021-06-16 15:32:06.943557,0.6064453125,0.5286865234375,-0.635986328125,22.216796875,-26.85546875,-18.9208984375,82
