arrival_time,acc_x,acc_y,acc_z,rot_x,rot_y,rot_z,ir_dist
2021-06-30 16:06:28.684063,0.9937744140625,0.092041015625,0.03466796875,1.15966796875,-5.67626953125,-2.9296875,13
2021-06-30 16:06:28.746863,0.99267578125,0.1025390625,0.033203125,-0.8544921875,-5.9814453125,-0.67138671875,12
2021-06-30 16:06:28.810339,0.9896240234375,0.1138916015625,0.037353515625,-0.8544921875,-4.5166015625,1.8310546875,12
2021-06-30 16:06:28.871608,0.9976806640625,0.109130859375,0.0433349609375,0.67138671875,-3.5400390625,2.99072265625,12
2021-06-30 16:06:28.932600,0.999267578125,0.1282958984375,0.0496826171875,0.732421875,-2.38037109375,4.0283203125,12
2021-06-30 16:06:28.993239,1.0040283203125,0.112548828125,0.04736328125,-0.1220703125,-2.685546875,3.60107421875,12
2021-06-30 16:06:29.056457,1.0018310546875,0.1065673828125,0.0484619140625,0.06103515625,-3.2958984375,3.60107421875,13
2021-06-30 16:06:29.119331,1.009033203125,0.1221923828125,0.04345703125,-0.6103515625,-3.47900390625,3.173828125,12
2021-06-30 16:06:29.181774,1.0069580078125,0.121337890625,0.046142578125,3.173828125,-3.96728515625,3.0517578125,12
2021-06-30 16:06:29.242815,1.01171875,0.1151123046875,0.043212890625,4.82177734375,-4.08935546875,1.89208984375,12
2021-06-30 16:06:29.304139,1.005615234375,0.1138916015625,0.0400390625,4.57763671875,-4.45556640625,0.9765625,12
2021-06-30 16:06:29.365902,1.000244140625,0.110107421875,0.0364990234375,4.5166015625,-3.7841796875,0.244140625,12
2021-06-30 16:06:29.428858,0.9967041015625,0.1065673828125,0.0338134765625,4.82177734375,-3.72314453125,0.06103515625,12
2021-06-30 16:06:29.490436,0.996826171875,0.104736328125,0.0313720703125,3.84521484375,-3.35693359375,0.06103515625,12
2021-06-30 16:06:29.552503,1.0018310546875,0.1043701171875,0.02783203125,1.77001953125,-3.35693359375,0.42724609375,13
2021-06-30 16:06:29.613316,1.0048828125,0.1077880859375,0.037353515625,3.11279296875,-3.41796875,0.8544921875,12
2021-06-30 16:06:29.676764,1.006103515625,0.0985107421875,0.0291748046875,1.89208984375,-4.150390625,1.28173828125,12
2021-06-30 16:06:29.740281,1.0054931640625,0.1005859375,0.0355224609375,-0.244140625,-4.0283203125,1.40380859375,12
2021-06-30 16:06:29.803320,1.002685546875,0.1085205078125,0.030517578125,-1.220703125,-3.41796875,1.5869140625,13
2021-06-30 16:06:29.865154,1.0009765625,0.11376953125,0.03369140625,-0.67138671875,-3.41796875,2.3193359375,12
2021-06-30 16:06:29.944167,1.000732421875,0.1025390625,0.037109375,0.732421875,-4.08935546875,1.0986328125,12
2021-06-30 16:06:30.007585,1.00244140625,0.105712890625,0.028564453125,-1.953125,-2.8076171875,0.3662109375,12
2021-06-30 16:06:30.068458,0.999267578125,0.1077880859375,0.0303955078125,0.67138671875,-3.84521484375,-0.30517578125,12
2021-06-30 16:06:30.132619,1.0023193359375,0.0943603515625,0.025146484375,1.28173828125,-3.84521484375,-0.30517578125,12
2021-06-30 16:06:30.233352,1.0032958984375,0.1014404296875,0.0279541015625,-2.50244140625,-2.62451171875,-0.79345703125,12
2021-06-30 16:06:30.319980,1.010009765625,0.105712890625,0.026123046875,-2.5634765625,-3.0517578125,-0.42724609375,13
2021-06-30 16:06:30.410301,1.0064697265625,0.0960693359375,0.0281982421875,-0.48828125,-6.103515625,-0.244140625,12
2021-06-30 16:06:30.470388,1.0001220703125,0.1038818359375,0.033935546875,-1.15966796875,-6.103515625,-0.42724609375,12
2021-06-30 16:06:30.533449,1.0069580078125,0.1121826171875,0.0357666015625,0.1220703125,-7.26318359375,-0.732421875,13
2021-06-30 16:06:30.595763,1.0108642578125,0.1129150390625,0.0491943359375,-0.42724609375,-6.77490234375,-1.220703125,12
2021-06-30 16:06:30.657594,1.0146484375,0.1234130859375,0.048583984375,-1.77001953125,-5.55419921875,-1.5869140625,12
2021-06-30 16:06:30.718066,1.0177001953125,0.1312255859375,0.05322265625,-2.50244140625,-3.90625,-3.0517578125,12
2021-06-30 16:06:30.780561,1.0050048828125,0.145263671875,0.0484619140625,-1.52587890625,-2.38037109375,-3.84521484375,13
2021-06-30 16:06:30.843164,0.998291015625,0.1622314453125,0.0496826171875,-2.01416015625,-1.40380859375,-5.18798828125,12
2021-06-30 16:06:30.906342,1.004150390625,0.1787109375,0.0318603515625,-7.87353515625,1.28173828125,-7.01904296875,13
2021-06-30 16:06:30.968828,1.0150146484375,0.2313232421875,0.0347900390625,-9.58251953125,2.50244140625,-11.8408203125,12
2021-06-30 16:06:31.031708,1.0377197265625,0.240234375,0.0242919921875,-4.08935546875,-14.95361328125,-17.08984375,12
2021-06-30 16:06:31.088051,1.03466796875,0.2569580078125,0.034423828125,-4.0283203125,-2.0751953125,-23.37646484375,12
2021-06-30 16:06:31.157944,1.020263671875,0.290283203125,0.02392578125,-9.3994140625,-3.72314453125,-32.04345703125,13
2021-06-30 16:06:31.218717,0.9693603515625,0.2943115234375,0.0125732421875,-5.615234375,-6.28662109375,-39.306640625,12
2021-06-30 16:06:31.280372,0.976806640625,0.2955322265625,0.0035400390625,-3.173828125,-6.77490234375,-44.189453125,13
2021-06-30 16:06:31.342919,0.9599609375,0.3118896484375,-0.014892578125,-1.0986328125,-7.26318359375,-50.048828125,12
2021-06-30 16:06:31.404577,0.9859619140625,0.3057861328125,-0.0257568359375,1.28173828125,-8.6669921875,-52.8564453125,12
2021-06-30 16:06:31.466854,1.01513671875,0.31787109375,-0.0228271484375,0.9765625,-10.07080078125,-55.48095703125,12
2021-06-30 16:06:31.529007,0.96337890625,0.3631591796875,-0.038818359375,17.63916015625,-22.64404296875,-57.80029296875,12
2021-06-30 16:06:31.591805,0.8519287109375,0.3253173828125,-0.0478515625,22.03369140625,-38.9404296875,-64.02587890625,12
2021-06-30 16:06:31.655453,0.832763671875,0.3359375,-0.099853515625,-3.23486328125,-42.3583984375,-70.49560546875,12
2021-06-30 16:06:31.717545,0.757568359375,0.3695068359375,-0.0941162109375,-15.93017578125,-52.18505859375,-69.091796875,12
2021-06-30 16:06:31.783904,0.6260986328125,0.381103515625,-0.08056640625,-30.57861328125,-59.38720703125,-65.00244140625,12
2021-06-30 16:06:31.842266,0.601318359375,0.355224609375,-0.0926513671875,-52.30712890625,-60.1806640625,-66.162109375,12
2021-06-30 16:06:31.901717,0.61181640625,0.3868408203125,-0.13916015625,-59.87548828125,-61.95068359375,-66.650390625,12
2021-06-30 16:06:31.963211,0.566650390625,0.4490966796875,-0.0765380859375,-50.9033203125,-64.27001953125,-70.068359375,12
2021-06-30 16:06:32.026809,0.5751953125,0.425537109375,-0.1248779296875,-28.564453125,-63.90380859375,-71.8994140625,12
2021-06-30 16:06:32.088424,0.571044921875,0.4447021484375,-0.1385498046875,-42.29736328125,-62.19482421875,-65.97900390625,13
2021-06-30 16:06:32.149090,0.52685546875,0.57470703125,-0.064453125,-45.166015625,-48.40087890625,-60.9130859375,12
2021-06-30 16:06:32.243565,0.487060546875,0.562255859375,-0.07958984375,-30.2734375,-50.537109375,-39.9169921875,13
2021-06-30 16:06:32.304819,0.45654296875,0.63623046875,-0.0291748046875,-34.60693359375,-33.8134765625,-26.06201171875,12
2021-06-30 16:06:32.367495,0.489990234375,0.7364501953125,-0.0797119140625,-38.39111328125,-20.99609375,-14.83154296875,13
2021-06-30 16:06:32.429302,0.5948486328125,0.7987060546875,-0.0401611328125,-22.03369140625,-13.00048828125,-1.46484375,13
2021-06-30 16:06:32.490139,0.72802734375,0.837890625,-0.0731201171875,-21.6064453125,-1.52587890625,0.79345703125,12
2021-06-30 16:06:32.552511,0.7109375,0.939453125,-0.051025390625,-17.63916015625,-8.23974609375,-6.89697265625,13
2021-06-30 16:06:32.614750,0.7147216796875,0.8751220703125,-0.0777587890625,-9.33837890625,-12.939453125,-21.78955078125,12
2021-06-30 16:06:32.677015,0.6773681640625,0.9761962890625,-0.0975341796875,-22.64404296875,-15.44189453125,-32.53173828125,12
2021-06-30 16:06:32.738187,0.6151123046875,0.9964599609375,-0.064697265625,-5.0048828125,-25.146484375,-34.11865234375,13
2021-06-30 16:06:32.797965,0.544189453125,0.94873046875,-0.096923828125,-6.89697265625,-19.47021484375,-33.14208984375,12
2021-06-30 16:06:32.859055,0.508544921875,0.986083984375,-0.1390380859375,-10.009765625,-10.7421875,-23.4375,12
2021-06-30 16:06:32.921965,0.5517578125,1.0673828125,-0.1080322265625,-4.0283203125,-1.40380859375,-8.60595703125,12
2021-06-30 16:06:32.985155,0.6483154296875,1.077880859375,-0.1201171875,-0.732421875,4.150390625,-1.953125,13
2021-06-30 16:06:33.057200,0.66943359375,1.1702880859375,-0.0792236328125,8.1787109375,7.87353515625,0.9765625,12
2021-06-30 16:06:33.118550,0.6214599609375,1.1572265625,-0.0692138671875,11.474609375,5.06591796875,5.2490234375,12
2021-06-30 16:06:33.179416,0.5989990234375,1.2061767578125,-0.057861328125,-5.4931640625,6.591796875,5.2490234375,12
2021-06-30 16:06:33.242768,0.622314453125,1.212158203125,-0.0740966796875,-9.94873046875,10.07080078125,12.451171875,12
2021-06-30 16:06:33.304926,0.7054443359375,1.080078125,-0.11474609375,3.0517578125,13.12255859375,19.287109375,13
2021-06-30 16:06:33.368332,0.758056640625,1.066162109375,-0.1173095703125,11.5966796875,17.15087890625,21.1181640625,13
2021-06-30 16:06:33.431453,0.7584228515625,0.991455078125,-0.1470947265625,19.6533203125,13.73291015625,29.1748046875,12
2021-06-30 16:06:33.493775,0.7578125,0.99267578125,-0.0911865234375,9.70458984375,15.869140625,33.99658203125,13
2021-06-30 16:06:33.557026,0.7735595703125,0.963623046875,-0.0733642578125,16.90673828125,12.20703125,39.24560546875,12
2021-06-30 16:06:33.613800,0.736328125,0.9229736328125,-0.052001953125,20.08056640625,7.14111328125,31.79931640625,12
2021-06-30 16:06:33.675744,0.696533203125,0.9278564453125,-0.0517578125,7.4462890625,13.18359375,31.43310546875,13
2021-06-30 16:06:33.737621,0.7515869140625,0.8551025390625,-0.037841796875,12.6953125,19.6533203125,42.05322265625,12
2021-06-30 16:06:33.800065,0.7376708984375,0.823974609375,-0.058837890625,19.95849609375,26.4892578125,37.841796875,12
2021-06-30 16:06:33.863047,0.793701171875,0.686279296875,-0.107421875,18.73779296875,28.1982421875,32.5927734375,12
2021-06-30 16:06:33.926307,0.73388671875,0.6417236328125,-0.1085205078125,63.4765625,14.95361328125,35.64453125,12
2021-06-30 16:06:33.988567,0.627197265625,0.541748046875,-0.1104736328125,47.79052734375,15.2587890625,35.2783203125,12
2021-06-30 16:06:34.051134,0.6744384765625,0.4298095703125,-0.172607421875,21.30126953125,30.517578125,37.17041015625,13
2021-06-30 16:06:34.113901,0.579345703125,0.4237060546875,-0.1497802734375,37.841796875,24.2919921875,51.3916015625,12
2021-06-30 16:06:34.176320,0.556884765625,0.3359375,-0.1119384765625,48.828125,27.52685546875,59.2041015625,13
2021-06-30 16:06:34.238003,0.539794921875,0.267333984375,-0.1455078125,54.931640625,24.2919921875,59.2041015625,12
2021-06-30 16:06:34.299108,0.47998046875,0.2237548828125,-0.1243896484375,65.673828125,18.4326171875,62.92724609375,13
2021-06-30 16:06:34.360531,0.484375,0.228759765625,-0.134521484375,60.302734375,19.04296875,66.650390625,12
2021-06-30 16:06:34.422134,0.5042724609375,0.275634765625,-0.138671875,54.6875,20.56884765625,69.64111328125,12
2021-06-30 16:06:34.484666,0.5634765625,0.3226318359375,-0.1341552734375,40.71044921875,21.484375,72.021484375,12
2021-06-30 16:06:34.545985,0.676025390625,0.298828125,-0.1583251953125,36.376953125,23.92578125,83.06884765625,13
2021-06-30 16:06:34.608030,0.764892578125,0.3133544921875,-0.128662109375,37.2314453125,28.4423828125,95.947265625,12
2021-06-30 16:06:34.669168,0.918701171875,0.30078125,-0.116943359375,18.1884765625,44.98291015625,111.63330078125,13
2021-06-30 16:06:34.731933,1.1807861328125,0.2391357421875,-0.0054931640625,31.31103515625,50.84228515625,115.3564453125,13
2021-06-30 16:06:34.787000,1.2879638671875,0.2685546875,0.0992431640625,135.55908203125,72.69287109375,74.70703125,12
2021-06-30 16:06:34.849407,1.4378662109375,0.7421875,-0.0025634765625,58.53271484375,40.1611328125,26.67236328125,12
2021-06-30 16:06:34.911656,1.326171875,0.287841796875,0.0255126953125,45.22705078125,-19.22607421875,25.634765625,13
2021-06-30 16:06:34.972814,1.0057373046875,0.1815185546875,0.10791015625,-41.748046875,-20.56884765625,-8.30078125,12
2021-06-30 16:06:35.034102,0.9388427734375,0.2652587890625,-0.0018310546875,-98.6328125,-1.28173828125,-17.88330078125,13
2021-06-30 16:06:35.096835,0.93701171875,0.2635498046875,-0.0965576171875,-85.205078125,2.62451171875,-23.8037109375,12
2021-06-30 16:06:35.160129,0.9532470703125,0.169921875,-0.0780029296875,-62.6220703125,10.31494140625,-26.123046875,12
2021-06-30 16:06:35.222724,0.98583984375,0.151611328125,-0.067138671875,-53.64990234375,14.46533203125,-31.18896484375,12
2021-06-30 16:06:35.283679,1.0694580078125,0.075927734375,-0.033447265625,-18.9208984375,12.75634765625,-38.51318359375,12
2021-06-30 16:06:35.346763,1.1036376953125,0.0155029296875,0.0545654296875,11.04736328125,-1.8310546875,-38.6962890625,13
2021-06-30 16:06:35.408116,1.1021728515625,-0.0203857421875,0.091552734375,23.25439453125,-17.578125,-40.771484375,13
2021-06-30 16:06:35.471541,1.0780029296875,-0.0059814453125,0.07177734375,28.076171875,-30.2734375,-43.212890625,12
2021-06-30 16:06:35.532814,1.050048828125,-0.005859375,0.02392578125,20.6298828125,-46.69189453125,-43.39599609375,12
2021-06-30 16:06:35.595593,1.0006103515625,0.014404296875,0.027587890625,3.60107421875,-52.42919921875,-38.87939453125,12
2021-06-30 16:06:35.657392,0.95849609375,0.072021484375,0.0128173828125,-8.056640625,-48.7060546875,-31.55517578125,12
2021-06-30 16:06:35.719941,0.91552734375,0.0855712890625,-0.009765625,-16.7236328125,-40.0390625,-19.47021484375,12
2021-06-30 16:06:35.780823,0.9171142578125,0.1170654296875,-0.0040283203125,-20.32470703125,-25.93994140625,-5.92041015625,13
2021-06-30 16:06:35.843425,0.9176025390625,0.1102294921875,-0.00927734375,-20.5078125,-20.263671875,7.38525390625,13
2021-06-30 16:06:35.905468,0.954833984375,0.1383056640625,0.016845703125,-20.751953125,-13.427734375,19.287109375,12
2021-06-30 16:06:35.969615,0.9813232421875,0.1973876953125,0.0352783203125,-13.12255859375,-8.544921875,25.7568359375,12
2021-06-30 16:06:36.031687,0.970458984375,0.1815185546875,0.0618896484375,-6.53076171875,-3.5400390625,27.64892578125,12
2021-06-30 16:06:36.093862,0.99609375,0.2275390625,0.0452880859375,-15.0146484375,0.6103515625,26.30615234375,13
2021-06-30 16:06:36.155724,0.9921875,0.2369384765625,0.03076171875,-0.79345703125,9.58251953125,24.84130859375,12
2021-06-30 16:06:36.217014,0.972900390625,0.216796875,0.032470703125,-3.0517578125,13.427734375,23.92578125,13
2021-06-30 16:06:36.280662,0.987060546875,0.2205810546875,0.02197265625,2.3193359375,18.98193359375,21.97265625,12
2021-06-30 16:06:36.343139,0.9976806640625,0.197265625,0.0137939453125,0.732421875,22.39990234375,17.7001953125,12
2021-06-30 16:06:36.405355,1.0169677734375,0.1658935546875,0.019287109375,11.23046875,26.42822265625,14.58740234375,12
2021-06-30 16:06:36.466831,1.0311279296875,0.1541748046875,0.02294921875,12.75634765625,27.16064453125,11.90185546875,12
2021-06-30 16:06:36.539271,1.03515625,0.126708984375,0.02880859375,16.2353515625,21.78955078125,6.7138671875,13
2021-06-30 16:06:36.601727,1.03662109375,0.102783203125,0.029541015625,15.56396484375,13.85498046875,1.5869140625,12
