arrival_time,acc_x,acc_y,acc_z,rot_x,rot_y,rot_z,ir_dist
2021-06-30 16:09:35.610540,0.98291015625,0.1312255859375,0.1956787109375,6.591796875,-3.84521484375,4.21142578125,141
2021-06-30 16:09:35.672812,0.9835205078125,0.1273193359375,0.1961669921875,7.32421875,-3.7841796875,3.23486328125,141
2021-06-30 16:09:35.734604,0.9854736328125,0.123046875,0.2010498046875,4.82177734375,-4.39453125,1.708984375,181
2021-06-30 16:09:35.796778,0.9830322265625,0.1317138671875,0.2061767578125,4.0283203125,-5.43212890625,0.9765625,159
2021-06-30 16:09:35.858773,0.982666015625,0.1173095703125,0.20458984375,2.62451171875,-7.14111328125,-0.9765625,126
2021-06-30 16:09:35.921232,0.9879150390625,0.128173828125,0.2154541015625,1.953125,-8.60595703125,-0.8544921875,126
2021-06-30 16:09:35.983122,0.979248046875,0.131103515625,0.211669921875,3.2958984375,-9.27734375,-2.44140625,126
2021-06-30 16:09:36.045778,0.9930419921875,0.1317138671875,0.1983642578125,4.45556640625,-9.27734375,-1.708984375,126
2021-06-30 16:09:36.109932,0.9976806640625,0.123291015625,0.2030029296875,0.79345703125,-9.82666015625,-1.46484375,138
2021-06-30 16:09:36.172093,0.991455078125,0.1273193359375,0.2108154296875,-3.47900390625,-8.30078125,-0.91552734375,106
2021-06-30 16:09:36.234123,0.9786376953125,0.1243896484375,0.22509765625,-6.9580078125,-6.8359375,-1.0986328125,104
2021-06-30 16:09:36.295772,0.9615478515625,0.1279296875,0.231689453125,-5.126953125,-3.96728515625,-0.3662109375,114
2021-06-30 16:09:36.358274,0.9642333984375,0.121337890625,0.2294921875,-0.42724609375,-2.685546875,0.244140625,159
2021-06-30 16:09:36.419947,0.974853515625,0.1207275390625,0.2100830078125,3.11279296875,-2.8076171875,2.01416015625,141
2021-06-30 16:09:36.483027,0.988037109375,0.1273193359375,0.2081298828125,3.7841796875,-4.0283203125,2.9296875,159
2021-06-30 16:09:36.545091,0.9879150390625,0.11767578125,0.2110595703125,2.8076171875,-5.126953125,2.685546875,126
2021-06-30 16:09:36.607126,0.99560546875,0.1129150390625,0.220458984375,0.48828125,-6.04248046875,2.38037109375,138
2021-06-30 16:09:36.669237,0.995361328125,0.11328125,0.224609375,1.708984375,-6.2255859375,2.3193359375,141
2021-06-30 16:09:36.732069,0.98095703125,0.1116943359375,0.227294921875,4.0283203125,-4.0283203125,2.01416015625,144
2021-06-30 16:09:36.794831,0.9852294921875,0.11572265625,0.222900390625,5.0048828125,-2.25830078125,1.5869140625,159
2021-06-30 16:09:36.858326,0.9921875,0.11962890625,0.214599609375,4.5166015625,-1.220703125,1.89208984375,141
2021-06-30 16:09:36.925240,0.9942626953125,0.12255859375,0.213134765625,2.8076171875,-1.5869140625,1.5869140625,126
2021-06-30 16:09:36.986451,0.992431640625,0.123046875,0.211669921875,2.13623046875,-2.13623046875,2.5634765625,96
2021-06-30 16:09:37.048517,0.980224609375,0.1148681640625,0.2255859375,-1.77001953125,-3.35693359375,1.28173828125,141
2021-06-30 16:09:37.110908,0.9810791015625,0.112548828125,0.2308349609375,-1.28173828125,-3.72314453125,1.64794921875,104
2021-06-30 16:09:37.170748,0.986572265625,0.1129150390625,0.2318115234375,0.30517578125,-5.37109375,0.18310546875,124
2021-06-30 16:09:37.231585,1.00537109375,0.111328125,0.2274169921875,0.18310546875,-7.26318359375,-1.03759765625,126
2021-06-30 16:09:37.293420,1.0106201171875,0.1282958984375,0.2384033203125,-0.3662109375,-9.1552734375,-1.708984375,138
2021-06-30 16:09:37.355254,0.9715576171875,0.1173095703125,0.2259521484375,5.2490234375,-8.23974609375,-2.86865234375,114
2021-06-30 16:09:37.417089,0.954345703125,0.1011962890625,0.2132568359375,3.7841796875,-7.6904296875,-5.31005859375,104
2021-06-30 16:09:37.479939,0.9708251953125,0.1165771484375,0.206298828125,1.40380859375,-8.30078125,-6.4697265625,114
2021-06-30 16:09:37.542295,0.9864501953125,0.1279296875,0.2083740234375,0.18310546875,-9.521484375,-7.2021484375,114
2021-06-30 16:09:37.604547,0.98193359375,0.1314697265625,0.2171630859375,-0.1220703125,-10.55908203125,-6.9580078125,155
2021-06-30 16:09:37.666920,0.9725341796875,0.1370849609375,0.2203369140625,0.1220703125,-9.70458984375,-6.103515625,126
2021-06-30 16:09:37.729042,0.9669189453125,0.136474609375,0.2191162109375,0.48828125,-8.4228515625,-5.18798828125,126
2021-06-30 16:09:37.791226,0.972412109375,0.137939453125,0.2071533203125,0.42724609375,-7.32421875,-4.0283203125,129
2021-06-30 16:09:37.852930,0.97509765625,0.13623046875,0.20849609375,-0.54931640625,-7.2021484375,-2.86865234375,141
2021-06-30 16:09:37.916088,0.9744873046875,0.1424560546875,0.214111328125,0.1220703125,-7.080078125,-1.220703125,114
2021-06-30 16:09:37.979888,0.97900390625,0.145751953125,0.21826171875,1.03759765625,-6.77490234375,-0.30517578125,141
2021-06-30 16:09:38.044879,0.9810791015625,0.153076171875,0.2156982421875,4.08935546875,-5.4931640625,2.13623046875,141
2021-06-30 16:09:38.107226,0.9786376953125,0.1473388671875,0.211669921875,4.33349609375,-4.33349609375,2.3193359375,159
2021-06-30 16:09:38.168752,0.99951171875,0.1483154296875,0.2059326171875,4.08935546875,-4.0283203125,3.7841796875,141
2021-06-30 16:09:38.230509,0.9886474609375,0.158447265625,0.213623046875,2.5634765625,-4.33349609375,4.638671875,155
2021-06-30 16:09:38.291953,0.98779296875,0.1568603515625,0.2171630859375,2.74658203125,-4.21142578125,4.638671875,151
2021-06-30 16:09:38.354134,0.9810791015625,0.1473388671875,0.2193603515625,-0.1220703125,-5.0048828125,3.84521484375,104
2021-06-30 16:09:38.415677,0.97705078125,0.1531982421875,0.22119140625,-0.1220703125,-5.37109375,2.5634765625,141
2021-06-30 16:09:38.478129,0.9813232421875,0.1519775390625,0.2139892578125,2.44140625,-6.04248046875,1.46484375,126
2021-06-30 16:09:38.588375,1.004638671875,0.15478515625,0.2012939453125,1.8310546875,-7.87353515625,-0.67138671875,159
2021-06-30 16:09:38.683121,1.000732421875,0.1607666015625,0.1920166015625,-2.99072265625,-10.986328125,-2.74658203125,141
2021-06-30 16:09:38.742962,0.990234375,0.16650390625,0.184326171875,-10.498046875,-14.2822265625,-7.26318359375,250
2021-06-30 16:09:38.803535,0.97705078125,0.162841796875,0.1568603515625,-21.240234375,-19.83642578125,-13.48876953125,211
2021-06-30 16:09:38.863480,0.99951171875,0.1920166015625,0.1240234375,-40.283203125,-25.93994140625,-25.32958984375,141
2021-06-30 16:09:38.924992,0.9893798828125,0.193359375,0.1385498046875,-54.0771484375,-26.42822265625,-29.72412109375,141
2021-06-30 16:09:38.988771,0.951171875,0.2113037109375,0.1737060546875,-44.61669921875,-23.681640625,-30.029296875,159
2021-06-30 16:09:39.050730,0.9508056640625,0.25048828125,0.2064208984375,-18.5546875,-16.54052734375,-27.52685546875,141
2021-06-30 16:09:39.112672,0.91650390625,0.25390625,0.192138671875,-1.77001953125,-13.24462890625,-23.5595703125,141
2021-06-30 16:09:39.174575,0.849365234375,0.22900390625,0.175537109375,16.66259765625,-5.43212890625,-16.90673828125,159
2021-06-30 16:09:39.238550,0.79931640625,0.198486328125,0.155517578125,16.78466796875,-1.03759765625,-11.5966796875,138
2021-06-30 16:09:39.302019,0.716552734375,0.1346435546875,0.1181640625,5.0048828125,3.11279296875,-3.5400390625,126
2021-06-30 16:09:39.365149,0.6474609375,0.2166748046875,0.1566162109375,24.23095703125,7.6904296875,-10.68115234375,138
2021-06-30 16:09:39.428130,0.6646728515625,0.1678466796875,0.1162109375,20.99609375,14.22119140625,0.9765625,141
2021-06-30 16:09:39.490077,0.5208740234375,0.129150390625,0.1676025390625,3.2958984375,25.57373046875,11.65771484375,126
2021-06-30 16:09:39.552683,0.4959716796875,0.0953369140625,0.1856689453125,-6.04248046875,41.44287109375,7.87353515625,159
2021-06-30 16:09:39.614442,0.56689453125,0.138916015625,0.2110595703125,-37.65869140625,41.3818359375,7.8125,159
2021-06-30 16:09:39.676301,0.609619140625,0.101806640625,0.2462158203125,-45.47119140625,45.10498046875,9.8876953125,159
2021-06-30 16:09:39.739076,0.789794921875,0.1004638671875,0.305419921875,-70.25146484375,46.93603515625,-1.953125,141
2021-06-30 16:09:39.801933,0.7586669921875,0.120849609375,0.374755859375,-43.8232421875,41.07666015625,3.90625,159
2021-06-30 16:09:39.851265,0.8876953125,0.2645263671875,0.34521484375,-17.7001953125,33.87451171875,4.150390625,138
2021-06-30 16:09:39.913212,0.7998046875,0.1522216796875,0.28466796875,20.3857421875,13.0615234375,-6.28662109375,138
2021-06-30 16:09:39.975208,0.785888671875,0.1519775390625,0.336181640625,19.287109375,14.95361328125,-13.0615234375,141
2021-06-30 16:09:40.037100,1.010498046875,0.321044921875,0.4910888671875,-6.40869140625,11.23046875,-30.2734375,141
2021-06-30 16:09:40.099606,0.8553466796875,0.1868896484375,0.4560546875,12.14599609375,1.40380859375,-28.99169921875,88
2021-06-30 16:09:40.163769,1.0775146484375,0.4755859375,0.736328125,-23.3154296875,16.66259765625,-62.92724609375,33
2021-06-30 16:09:40.226417,0.975830078125,0.545166015625,0.63232421875,10.8642578125,3.173828125,-58.65478515625,16
2021-06-30 16:09:40.288992,0.8797607421875,0.2608642578125,0.7255859375,15.869140625,16.2353515625,-62.80517578125,15
2021-06-30 16:09:40.350714,1.0557861328125,0.4276123046875,0.743896484375,2.74658203125,43.3349609375,-60.302734375,16
2021-06-30 16:09:40.400404,1.003173828125,0.5750732421875,0.5789794921875,-15.19775390625,24.7802734375,-65.73486328125,12
2021-06-30 16:09:40.461546,0.998779296875,0.6177978515625,0.674072265625,6.53076171875,21.484375,-74.8291015625,12
2021-06-30 16:09:40.555664,1.1456298828125,0.4591064453125,0.767822265625,12.3291015625,-16.845703125,-97.47314453125,11
2021-06-30 16:09:40.616660,0.9000244140625,0.5074462890625,0.8427734375,-22.5830078125,-36.0107421875,-48.4619140625,14
2021-06-30 16:09:40.678985,0.8927001953125,0.638427734375,1.10107421875,0.79345703125,-17.63916015625,-21.3623046875,18
2021-06-30 16:09:40.741655,1.2352294921875,0.8870849609375,0.8751220703125,55.84716796875,-23.193359375,-5.37109375,50
2021-06-30 16:09:40.804545,1.016357421875,0.94580078125,0.9097900390625,11.1083984375,-3.72314453125,8.11767578125,102
2021-06-30 16:09:40.865589,0.9947509765625,0.9156494140625,0.986083984375,9.94873046875,-0.48828125,14.16015625,112
2021-06-30 16:09:40.928405,1.03564453125,0.8316650390625,0.7708740234375,20.751953125,-14.46533203125,5.67626953125,76
2021-06-30 16:09:41.005736,0.9996337890625,0.833740234375,0.674072265625,-27.9541015625,-20.08056640625,-6.77490234375,75
2021-06-30 16:09:41.068814,0.917724609375,0.6900634765625,0.7156982421875,-39.9169921875,-20.5078125,8.23974609375,59
2021-06-30 16:09:41.131674,0.9775390625,0.652587890625,0.6595458984375,-8.6669921875,-19.53125,19.10400390625,63
2021-06-30 16:09:41.193799,0.900390625,0.61279296875,0.5302734375,1.0986328125,-34.97314453125,24.2919921875,63
2021-06-30 16:09:41.254989,0.761474609375,0.5465087890625,0.5225830078125,-35.0341796875,-35.5224609375,21.30126953125,63
2021-06-30 16:09:41.317406,0.75048828125,0.3070068359375,0.5079345703125,-55.6640625,-38.4521484375,20.263671875,59
2021-06-30 16:09:41.379914,0.7216796875,0.2056884765625,0.468994140625,-88.19580078125,-43.0908203125,39.0625,141
2021-06-30 16:09:41.441083,0.7662353515625,0.1390380859375,0.4307861328125,-70.98388671875,-38.330078125,60.4248046875,124
2021-06-30 16:09:41.503082,0.6260986328125,0.11669921875,0.5037841796875,-8.36181640625,-32.470703125,66.22314453125,114
2021-06-30 16:09:41.561726,0.472412109375,0.0933837890625,0.408935546875,35.21728515625,-31.73828125,83.8623046875,114
2021-06-30 16:09:41.622858,0.4132080078125,0.1602783203125,0.2919921875,92.7734375,-23.193359375,104.79736328125,112
2021-06-30 16:09:41.685279,0.464111328125,0.1678466796875,0.249755859375,147.94921875,0.3662109375,103.8818359375,141
2021-06-30 16:09:41.746959,0.537109375,0.1064453125,0.1669921875,150.7568359375,9.521484375,100.89111328125,141
2021-06-30 16:09:41.809496,0.630859375,0.11474609375,0.036376953125,112.85400390625,11.53564453125,103.82080078125,181
2021-06-30 16:09:41.872068,0.6827392578125,0.1148681640625,0.0206298828125,91.796875,14.6484375,103.45458984375,112
2021-06-30 16:09:41.932742,0.7825927734375,0.2001953125,0.1280517578125,81.1767578125,14.58740234375,90.27099609375,112
2021-06-30 16:09:41.993829,0.7528076171875,0.218505859375,0.1893310546875,50.84228515625,-12.26806640625,78.9794921875,102
2021-06-30 16:09:42.056770,0.666259765625,0.2042236328125,0.2899169921875,34.0576171875,-10.43701171875,63.5986328125,104
2021-06-30 16:09:42.118833,0.807373046875,0.0677490234375,0.33935546875,19.71435546875,-8.23974609375,43.701171875,76
2021-06-30 16:09:42.179282,0.8673095703125,0.13916015625,0.388671875,6.7138671875,-17.88330078125,33.3251953125,114
2021-06-30 16:09:42.240969,0.889404296875,0.0772705078125,0.342529296875,19.8974609375,-25.87890625,3.35693359375,141
2021-06-30 16:09:42.302943,0.926025390625,0.0386962890625,0.29296875,4.39453125,-28.25927734375,-12.75634765625,88
2021-06-30 16:09:42.364847,0.9998779296875,0.12353515625,0.29248046875,-21.30126953125,-33.63037109375,-26.0009765625,82
2021-06-30 16:09:42.428818,1.0736083984375,0.0975341796875,0.2720947265625,-30.6396484375,-43.27392578125,-43.0908203125,96
2021-06-30 16:09:42.491815,1.1224365234375,0.0496826171875,0.261962890625,-50.35400390625,-51.57470703125,-51.26953125,176
2021-06-30 16:09:42.553715,1.0333251953125,0.1468505859375,0.3594970703125,-57.373046875,-53.7109375,-60.05859375,181
2021-06-30 16:09:42.614918,0.9464111328125,0.188232421875,0.3660888671875,-33.14208984375,-47.8515625,-68.78662109375,181
2021-06-30 16:09:42.678718,0.8984375,0.1397705078125,0.3251953125,-5.126953125,-39.24560546875,-70.25146484375,181
2021-06-30 16:09:42.750916,0.8953857421875,0.16845703125,0.296142578125,-1.52587890625,-36.43798828125,-64.208984375,141
2021-06-30 16:09:42.812751,0.9964599609375,0.1912841796875,0.230712890625,-1.46484375,-34.72900390625,-58.53271484375,126
2021-06-30 16:09:42.875849,1.016845703125,0.205810546875,0.2352294921875,-5.0048828125,-36.376953125,-44.86083984375,126
2021-06-30 16:09:42.937656,0.9276123046875,0.2440185546875,0.2244873046875,-3.5400390625,-34.85107421875,-32.2265625,96
2021-06-30 16:09:42.998839,0.889404296875,0.2515869140625,0.1907958984375,6.34765625,-27.52685546875,-19.95849609375,112
2021-06-30 16:09:43.059823,0.9102783203125,0.247314453125,0.1678466796875,5.67626953125,-20.81298828125,-9.033203125,104
2021-06-30 16:09:43.122654,0.9208984375,0.2742919921875,0.1641845703125,2.86865234375,-15.19775390625,6.16455078125,104
2021-06-30 16:09:43.184833,0.9176025390625,0.276611328125,0.165771484375,3.5400390625,-11.16943359375,15.625,114
2021-06-30 16:09:43.248663,0.9305419921875,0.2647705078125,0.143310546875,7.32421875,-5.31005859375,27.099609375,181
2021-06-30 16:09:43.310927,0.932861328125,0.24169921875,0.1517333984375,2.44140625,-1.8310546875,34.7900390625,181
2021-06-30 16:09:43.372910,0.9613037109375,0.239990234375,0.1666259765625,0.48828125,2.01416015625,40.22216796875,250
2021-06-30 16:09:43.435634,0.9205322265625,0.24755859375,0.2266845703125,5.7373046875,5.92041015625,41.19873046875,250
2021-06-30 16:09:43.498360,0.958251953125,0.208984375,0.2186279296875,5.9814453125,6.04248046875,42.17529296875,241
2021-06-30 16:09:43.561996,1.011474609375,0.171630859375,0.1680908203125,-9.46044921875,11.3525390625,33.935546875,141
