arrival_time,acc_x,acc_y,acc_z,rot_x,rot_y,rot_z,ir_dist
2021-06-30 15:51:17.940515,0.8167724609375,0.19580078125,-0.5211181640625,0.6103515625,-4.0283203125,-0.3662109375,94
2021-06-30 15:51:18.003128,0.815185546875,0.19580078125,-0.5184326171875,0.18310546875,-3.90625,-0.30517578125,93
2021-06-30 15:51:18.065012,0.8250732421875,0.2044677734375,-0.519775390625,1.40380859375,-3.84521484375,-0.6103515625,102
2021-06-30 15:51:18.127185,0.814697265625,0.1932373046875,-0.5146484375,0.9765625,-3.60107421875,-0.30517578125,82
2021-06-30 15:51:18.188402,0.81982421875,0.195068359375,-0.5146484375,0.06103515625,-3.35693359375,-0.6103515625,82
2021-06-30 15:51:18.250489,0.8153076171875,0.195556640625,-0.523681640625,-0.732421875,-3.72314453125,-1.15966796875,102
2021-06-30 15:51:18.312971,0.8153076171875,0.191650390625,-0.5247802734375,-0.18310546875,-3.7841796875,-0.9765625,76
2021-06-30 15:51:18.375881,0.820556640625,0.1875,-0.52001953125,0.0,-3.60107421875,-0.8544921875,79
2021-06-30 15:51:18.438886,0.8248291015625,0.190185546875,-0.522705078125,-0.1220703125,-4.08935546875,-0.9765625,64
2021-06-30 15:51:18.501760,0.813232421875,0.1856689453125,-0.5211181640625,-0.18310546875,-4.150390625,-0.6103515625,68
2021-06-30 15:51:18.563652,0.8212890625,0.192626953125,-0.514404296875,1.03759765625,-4.638671875,-0.6103515625,71
2021-06-30 15:51:18.626111,0.81494140625,0.192138671875,-0.5179443359375,0.42724609375,-4.0283203125,-0.79345703125,70
2021-06-30 15:51:18.687884,0.8187255859375,0.19677734375,-0.515625,0.67138671875,-3.84521484375,-0.732421875,83
2021-06-30 15:51:18.749279,0.8175048828125,0.18701171875,-0.51806640625,0.1220703125,-3.60107421875,-0.54931640625,104
2021-06-30 15:51:18.811303,0.8153076171875,0.1888427734375,-0.5145263671875,0.42724609375,-3.47900390625,-0.54931640625,96
2021-06-30 15:51:18.872914,0.8233642578125,0.1893310546875,-0.521240234375,0.06103515625,-3.5400390625,-0.48828125,62
2021-06-30 15:51:18.935388,0.8140869140625,0.1807861328125,-0.522705078125,0.732421875,-3.60107421875,-0.244140625,57
2021-06-30 15:51:18.997417,0.82470703125,0.1873779296875,-0.518310546875,1.220703125,-3.72314453125,0.1220703125,72
2021-06-30 15:51:19.060753,0.81591796875,0.1915283203125,-0.5185546875,0.48828125,-4.21142578125,-0.1220703125,102
2021-06-30 15:51:19.123758,0.8199462890625,0.195068359375,-0.5147705078125,1.03759765625,-3.90625,-0.3662109375,82
2021-06-30 15:51:19.192726,0.8243408203125,0.1932373046875,-0.5140380859375,-0.18310546875,-4.2724609375,-0.244140625,100
2021-06-30 15:51:19.253864,0.8177490234375,0.19384765625,-0.512939453125,0.732421875,-3.60107421875,-0.732421875,104
2021-06-30 15:51:19.315707,0.816650390625,0.1954345703125,-0.5184326171875,0.1220703125,-3.662109375,-0.48828125,83
2021-06-30 15:51:19.377221,0.822998046875,0.1929931640625,-0.5137939453125,-0.3662109375,-3.23486328125,-0.67138671875,129
2021-06-30 15:51:19.439267,0.823974609375,0.195556640625,-0.5184326171875,-0.3662109375,-3.96728515625,-0.79345703125,100
2021-06-30 15:51:19.501887,0.82470703125,0.1951904296875,-0.5260009765625,-0.30517578125,-4.21142578125,-1.3427734375,96
2021-06-30 15:51:19.565484,0.8388671875,0.1943359375,-0.526611328125,-0.18310546875,-6.7138671875,-1.77001953125,61
2021-06-30 15:51:19.627033,0.8173828125,0.212646484375,-0.5484619140625,-1.708984375,-13.00048828125,-2.99072265625,56
2021-06-30 15:51:19.690073,0.8277587890625,0.232421875,-0.5775146484375,-1.5869140625,-14.34326171875,-4.94384765625,94
2021-06-30 15:51:19.752696,0.823486328125,0.2420654296875,-0.5853271484375,-0.91552734375,-16.05224609375,-6.591796875,76
2021-06-30 15:51:19.815044,0.791259765625,0.2525634765625,-0.5950927734375,-2.5634765625,-23.25439453125,-9.33837890625,85
2021-06-30 15:51:19.877174,0.8223876953125,0.2550048828125,-0.637451171875,-0.91552734375,-28.50341796875,-13.0615234375,88
2021-06-30 15:51:19.938099,0.8214111328125,0.259033203125,-0.6646728515625,-3.2958984375,-42.3583984375,-16.6015625,72
2021-06-30 15:51:20.000787,0.7977294921875,0.26611328125,-0.68701171875,-0.6103515625,-49.8046875,-20.01953125,70
2021-06-30 15:51:20.062874,0.797119140625,0.277587890625,-0.7222900390625,0.0,-60.60791015625,-24.47509765625,104
2021-06-30 15:51:20.125245,0.73974609375,0.2716064453125,-0.749267578125,-2.685546875,-73.42529296875,-27.52685546875,144
2021-06-30 15:51:20.187759,0.7255859375,0.28125,-0.7552490234375,-4.7607421875,-81.1767578125,-30.6396484375,132
2021-06-30 15:51:20.249800,0.68798828125,0.26123046875,-0.770751953125,-6.77490234375,-91.6748046875,-32.53173828125,141
2021-06-30 15:51:20.301202,0.6009521484375,0.2725830078125,-0.8055419921875,-7.14111328125,-101.318359375,-33.63037109375,104
2021-06-30 15:51:20.363812,0.5426025390625,0.2984619140625,-0.8572998046875,-5.615234375,-105.65185546875,-33.63037109375,181
2021-06-30 15:51:20.426477,0.425048828125,0.3233642578125,-0.83984375,-5.4931640625,-114.1357421875,-32.77587890625,155
2021-06-30 15:51:20.488810,0.355224609375,0.3282470703125,-0.914306640625,-6.8359375,-116.27197265625,-32.71484375,106
2021-06-30 15:51:20.551005,0.308349609375,0.328369140625,-0.894287109375,-5.67626953125,-121.9482421875,-31.3720703125,114
2021-06-30 15:51:20.612675,0.1885986328125,0.3446044921875,-0.90283203125,-2.62451171875,-120.78857421875,-34.24072265625,116
2021-06-30 15:51:20.675705,0.081298828125,0.3616943359375,-0.879638671875,0.8544921875,-124.45068359375,-33.87451171875,63
2021-06-30 15:51:20.739070,-0.03564453125,0.3543701171875,-0.900146484375,-11.41357421875,-124.57275390625,-33.69140625,25
2021-06-30 15:51:20.801236,-0.1246337890625,0.383544921875,-0.84619140625,-10.25390625,-122.802734375,-34.24072265625,21
2021-06-30 15:51:20.862765,-0.220703125,0.367431640625,-0.837158203125,-18.310546875,-122.314453125,-32.2265625,17
2021-06-30 15:51:20.920576,-0.3240966796875,0.3251953125,-0.7613525390625,-13.61083984375,-119.62890625,-28.38134765625,8
2021-06-30 15:51:20.981958,-0.3651123046875,0.3060302734375,-0.7327880859375,-14.16015625,-113.8916015625,-27.7099609375,7
2021-06-30 15:51:21.045003,-0.405517578125,0.304931640625,-0.68359375,-13.916015625,-104.248046875,-25.0244140625,7
2021-06-30 15:51:21.107989,-0.4466552734375,0.32373046875,-0.6380615234375,-9.27734375,-96.435546875,-19.22607421875,6
2021-06-30 15:51:21.170194,-0.4959716796875,0.3031005859375,-0.5867919921875,-7.62939453125,-84.716796875,-18.1884765625,6
2021-06-30 15:51:21.231924,-0.5570068359375,0.3323974609375,-0.6129150390625,-9.21630859375,-75.1953125,-19.34814453125,5
2021-06-30 15:51:21.294034,-0.6087646484375,0.3555908203125,-0.5706787109375,-11.77978515625,-66.58935546875,-19.34814453125,6
2021-06-30 15:51:21.388058,-0.69384765625,0.347412109375,-0.5543212890625,-12.5732421875,-59.14306640625,-19.34814453125,10
2021-06-30 15:51:21.453594,-0.7095947265625,0.426025390625,-0.412109375,-13.00048828125,-59.87548828125,-11.5966796875,16
2021-06-30 15:51:21.515749,-0.829833984375,0.3509521484375,-0.4268798828125,7.87353515625,-66.2841796875,4.7607421875,13
2021-06-30 15:51:21.577545,-0.87353515625,0.346435546875,-0.4395751953125,1.40380859375,-63.232421875,5.55419921875,13
2021-06-30 15:51:21.640397,-0.7420654296875,0.3065185546875,-0.3746337890625,-5.31005859375,-57.12890625,-2.0751953125,10
2021-06-30 15:51:21.701906,-0.81396484375,0.348388671875,-0.3616943359375,-0.244140625,-43.64013671875,-9.521484375,10
2021-06-30 15:51:21.765056,-0.940185546875,0.31298828125,-0.2578125,23.25439453125,-22.76611328125,-15.07568359375,9
2021-06-30 15:51:21.825879,-0.8524169921875,0.3646240234375,-0.356689453125,-2.86865234375,-14.95361328125,-16.7236328125,10
2021-06-30 15:51:21.886815,-0.8486328125,0.3138427734375,-0.336181640625,2.9296875,-3.23486328125,-17.15087890625,9
2021-06-30 15:51:21.950085,-0.8167724609375,0.3179931640625,-0.3515625,1.03759765625,10.7421875,-10.68115234375,9
2021-06-30 15:51:22.008075,-0.849365234375,0.297607421875,-0.3685302734375,-0.54931640625,20.32470703125,-4.45556640625,10
2021-06-30 15:51:22.069979,-0.885986328125,0.2689208984375,-0.35546875,6.2255859375,35.0341796875,-3.0517578125,9
2021-06-30 15:51:22.131637,-0.8345947265625,0.292236328125,-0.4049072265625,3.60107421875,48.76708984375,-0.244140625,10
2021-06-30 15:51:22.192924,-0.9053955078125,0.2889404296875,-0.442138671875,-6.4697265625,56.21337890625,-0.8544921875,10
2021-06-30 15:51:22.255471,-0.7764892578125,0.3251953125,-0.507568359375,-7.6904296875,58.89892578125,-6.53076171875,11
2021-06-30 15:51:22.316916,-0.6790771484375,0.35791015625,-0.51171875,-14.404296875,67.2607421875,5.4931640625,14
2021-06-30 15:51:22.377937,-0.7071533203125,0.326904296875,-0.5303955078125,-0.91552734375,68.7255859375,7.32421875,19
2021-06-30 15:51:22.440117,-0.561279296875,0.292236328125,-0.610595703125,-7.8125,77.45361328125,3.5400390625,19
2021-06-30 15:51:22.503096,-0.559814453125,0.3448486328125,-0.6610107421875,-10.3759765625,75.68359375,7.99560546875,14
2021-06-30 15:51:22.568654,-0.4581298828125,0.2984619140625,-0.6871337890625,0.30517578125,78.18603515625,12.0849609375,6
2021-06-30 15:51:22.630759,-0.5,0.327880859375,-0.7314453125,-1.15966796875,77.2705078125,15.9912109375,6
2021-06-30 15:51:22.692983,-0.343505859375,0.3365478515625,-0.7608642578125,4.39453125,78.2470703125,24.658203125,7
2021-06-30 15:51:22.753279,-0.4288330078125,0.315673828125,-0.77001953125,4.2724609375,78.06396484375,26.9775390625,6
2021-06-30 15:51:22.815698,-0.247314453125,0.366943359375,-0.849365234375,6.89697265625,78.9794921875,26.85546875,9
2021-06-30 15:51:22.877725,-0.277587890625,0.2977294921875,-0.791259765625,5.92041015625,84.3505859375,29.9072265625,13
2021-06-30 15:51:22.940117,-0.172607421875,0.3692626953125,-0.832275390625,2.62451171875,88.9892578125,28.01513671875,18
2021-06-30 15:51:23.002573,-0.0570068359375,0.3795166015625,-0.82666015625,5.37109375,89.29443359375,34.912109375,22
2021-06-30 15:51:23.064415,0.0064697265625,0.3848876953125,-0.8602294921875,11.3525390625,94.3603515625,35.5224609375,21
2021-06-30 15:51:23.126798,0.186767578125,0.3292236328125,-0.8465576171875,9.33837890625,96.3134765625,36.07177734375,61
2021-06-30 15:51:23.187278,0.118896484375,0.378662109375,-0.9205322265625,2.25830078125,94.42138671875,39.1845703125,114
2021-06-30 15:51:23.249547,0.280517578125,0.3717041015625,-0.852783203125,12.6953125,97.96142578125,36.0107421875,93
2021-06-30 15:51:23.311235,0.224365234375,0.3369140625,-0.8817138671875,6.591796875,99.9755859375,39.85595703125,132
2021-06-30 15:51:23.373695,0.4749755859375,0.3138427734375,-0.8519287109375,10.7421875,102.35595703125,36.865234375,102
2021-06-30 15:51:23.436721,0.4404296875,0.2626953125,-0.7889404296875,8.4228515625,98.876953125,40.34423828125,106
2021-06-30 15:51:23.499323,0.712158203125,0.25634765625,-0.6942138671875,11.23046875,96.0693359375,33.69140625,259
2021-06-30 15:51:23.560619,0.7041015625,0.249267578125,-0.7218017578125,8.48388671875,84.8388671875,35.400390625,79
2021-06-30 15:51:23.622034,0.782958984375,0.2535400390625,-0.7027587890625,8.4228515625,77.33154296875,34.7900390625,121
2021-06-30 15:51:23.684922,0.7205810546875,0.282470703125,-0.7513427734375,3.96728515625,63.232421875,33.447265625,138
2021-06-30 15:51:23.747863,0.732421875,0.306884765625,-0.7593994140625,8.6669921875,62.8662109375,30.57861328125,172
2021-06-30 15:51:23.810005,0.745849609375,0.2838134765625,-0.7181396484375,8.1787109375,58.53271484375,26.67236328125,132
2021-06-30 15:51:23.872453,0.852783203125,0.2691650390625,-0.615234375,9.94873046875,55.84716796875,19.287109375,79
2021-06-30 15:51:23.933784,0.835205078125,0.24462890625,-0.5765380859375,3.35693359375,47.7294921875,15.13671875,84
2021-06-30 15:51:23.996427,0.868896484375,0.228759765625,-0.572509765625,-1.220703125,43.02978515625,11.962890625,104
2021-06-30 15:51:24.059290,0.8768310546875,0.2049560546875,-0.570556640625,-3.7841796875,27.28271484375,6.4697265625,73
2021-06-30 15:51:24.122295,0.8741455078125,0.2161865234375,-0.552490234375,5.9814453125,17.27294921875,2.99072265625,76
2021-06-30 15:51:24.184198,0.8717041015625,0.2010498046875,-0.5528564453125,7.9345703125,10.31494140625,1.708984375,60
2021-06-30 15:51:24.245749,0.8753662109375,0.181396484375,-0.52099609375,7.38525390625,4.0283203125,-0.42724609375,66
2021-06-30 15:51:24.310218,0.87158203125,0.1595458984375,-0.50927734375,10.92529296875,-0.6103515625,-2.50244140625,114
2021-06-30 15:51:24.371737,0.8636474609375,0.1524658203125,-0.487060546875,9.1552734375,-2.197265625,-3.11279296875,100
2021-06-30 15:51:24.434153,0.84326171875,0.15966796875,-0.4945068359375,5.43212890625,-2.5634765625,-2.01416015625,176
2021-06-30 15:51:24.496471,0.8468017578125,0.1463623046875,-0.4925537109375,0.91552734375,-2.25830078125,-2.44140625,181
2021-06-30 15:51:24.564101,0.8712158203125,0.1588134765625,-0.51318359375,-0.9765625,-2.5634765625,-1.953125,112
2021-06-30 15:51:24.626556,0.851318359375,0.1541748046875,-0.4818115234375,0.06103515625,-2.74658203125,-1.5869140625,96
2021-06-30 15:51:24.688129,0.8621826171875,0.1597900390625,-0.4835205078125,-0.42724609375,-2.99072265625,-1.77001953125,102
2021-06-30 15:51:24.750636,0.8482666015625,0.16064453125,-0.4752197265625,1.8310546875,-5.859375,-1.46484375,116
2021-06-30 15:51:24.814132,0.83837890625,0.18408203125,-0.4757080078125,4.638671875,-6.34765625,-2.50244140625,87
2021-06-30 15:51:24.880743,0.835205078125,0.1910400390625,-0.476318359375,7.38525390625,-7.4462890625,-2.99072265625,94
2021-06-30 15:51:24.942847,0.8328857421875,0.18359375,-0.484375,6.89697265625,-6.40869140625,-4.33349609375,106
2021-06-30 15:51:25.005395,0.85498046875,0.1707763671875,-0.4805908203125,7.01904296875,-4.45556640625,-4.7607421875,121
2021-06-30 15:51:25.067764,0.8607177734375,0.162841796875,-0.482177734375,5.615234375,-3.7841796875,-4.0283203125,135
2021-06-30 15:51:25.129574,0.8658447265625,0.1375732421875,-0.482421875,6.04248046875,-2.44140625,-3.23486328125,138
2021-06-30 15:51:25.191308,0.8768310546875,0.14892578125,-0.485595703125,0.67138671875,-2.74658203125,-2.01416015625,138
2021-06-30 15:51:25.253358,0.8582763671875,0.1507568359375,-0.4869384765625,-0.1220703125,-4.39453125,-1.03759765625,90
2021-06-30 15:51:25.314896,0.8560791015625,0.1614990234375,-0.4974365234375,-3.662109375,-4.45556640625,0.30517578125,104
2021-06-30 15:51:25.384584,0.8536376953125,0.16650390625,-0.488037109375,-3.11279296875,-6.04248046875,0.79345703125,116
2021-06-30 15:51:25.446892,0.839111328125,0.1617431640625,-0.4754638671875,-3.0517578125,-7.2021484375,0.6103515625,88
2021-06-30 15:51:25.509990,0.8489990234375,0.171875,-0.4969482421875,0.244140625,-5.92041015625,-0.30517578125,94
2021-06-30 15:51:25.572876,0.85302734375,0.178466796875,-0.502197265625,0.06103515625,-6.89697265625,-0.06103515625,114
2021-06-30 15:51:25.636471,0.8389892578125,0.1734619140625,-0.4847412109375,0.8544921875,-7.50732421875,-0.42724609375,77
2021-06-30 15:51:25.698922,0.8604736328125,0.1629638671875,-0.49609375,-0.3662109375,-5.9814453125,-1.03759765625,119
2021-06-30 15:51:25.759721,0.853759765625,0.150390625,-0.498046875,-2.01416015625,-6.53076171875,-0.30517578125,104
2021-06-30 15:51:25.821836,0.8470458984375,0.135986328125,-0.4923095703125,-2.8076171875,-6.7138671875,0.30517578125,72
2021-06-30 15:51:25.884829,0.8592529296875,0.14697265625,-0.495361328125,-3.41796875,-7.14111328125,0.67138671875,73
