arrival_time,acc_x,acc_y,acc_z,rot_x,rot_y,rot_z,ir_dist
2021-06-30 16:53:41.189956,0.992919921875,-0.0062255859375,0.108642578125,24.96337890625,-17.4560546875,-1.89208984375,13
2021-06-30 16:53:41.236168,0.9957275390625,-0.0245361328125,0.154541015625,26.123046875,-25.69580078125,-0.9765625,12
2021-06-30 16:53:41.299122,0.9952392578125,-0.0313720703125,0.1722412109375,30.82275390625,-31.31103515625,-0.30517578125,12
2021-06-30 16:53:41.361485,0.9766845703125,-0.000244140625,0.155029296875,18.98193359375,-24.84130859375,1.03759765625,12
2021-06-30 16:53:41.422985,1.0107421875,0.0535888671875,0.1273193359375,15.19775390625,-13.5498046875,2.62451171875,12
2021-06-30 16:53:41.485014,1.043701171875,0.0325927734375,0.1737060546875,16.05224609375,-12.87841796875,2.01416015625,12
2021-06-30 16:53:41.546678,1.0223388671875,0.0570068359375,0.175048828125,21.05712890625,-16.11328125,3.0517578125,12
2021-06-30 16:53:41.607857,1.0098876953125,0.0308837890625,0.1739501953125,25.5126953125,-15.869140625,0.6103515625,12
2021-06-30 16:53:41.670552,1.00634765625,0.026611328125,0.1339111328125,31.1279296875,-12.14599609375,0.732421875,12
2021-06-30 16:53:41.733549,0.9979248046875,0.0628662109375,0.081298828125,38.818359375,-9.82666015625,0.8544921875,12
2021-06-30 16:53:41.795953,1.2322998046875,-0.0311279296875,0.0438232421875,36.56005859375,-20.3857421875,0.9765625,12
2021-06-30 16:53:41.857484,0.9586181640625,-0.116455078125,0.05078125,41.07666015625,-23.92578125,3.23486328125,12
2021-06-30 16:53:41.920043,0.9781494140625,-0.0540771484375,0.1207275390625,16.845703125,-15.2587890625,2.38037109375,13
2021-06-30 16:53:41.981641,0.95849609375,-0.0601806640625,0.130126953125,23.13232421875,-9.09423828125,0.42724609375,12
2021-06-30 16:53:42.043979,1.0135498046875,-0.0572509765625,0.0533447265625,2.685546875,-7.87353515625,-0.42724609375,12
2021-06-30 16:53:42.106675,1.0267333984375,-0.051025390625,-0.0054931640625,4.82177734375,-5.615234375,0.54931640625,12
2021-06-30 16:53:42.167734,1.02001953125,-0.0361328125,0.00439453125,14.16015625,-5.67626953125,1.77001953125,12
2021-06-30 16:53:42.231615,0.9703369140625,-0.033447265625,0.0750732421875,20.8740234375,-9.27734375,2.685546875,13
2021-06-30 16:53:42.294447,0.967529296875,-0.0423583984375,0.075439453125,18.00537109375,-9.765625,2.13623046875,12
2021-06-30 16:53:42.357480,0.9776611328125,-0.059326171875,0.0751953125,17.15087890625,-7.32421875,2.01416015625,12
2021-06-30 16:53:42.420562,1.001708984375,-0.0682373046875,0.04248046875,12.63427734375,-7.75146484375,2.01416015625,12
2021-06-30 16:53:42.482578,1.014404296875,-0.0982666015625,0.067626953125,17.333984375,-5.126953125,2.25830078125,13
2021-06-30 16:53:42.546378,1.0159912109375,-0.1116943359375,0.0606689453125,13.48876953125,0.79345703125,3.72314453125,13
2021-06-30 16:53:42.608543,1.0020751953125,-0.091064453125,0.045654296875,16.7236328125,-2.25830078125,5.43212890625,12
2021-06-30 16:53:42.670560,0.98583984375,-0.0911865234375,0.031494140625,9.58251953125,-1.46484375,6.8359375,12
2021-06-30 16:53:42.732367,0.978271484375,-0.0938720703125,0.0362548828125,4.2724609375,1.5869140625,5.18798828125,12
2021-06-30 16:53:42.793204,0.9862060546875,-0.09765625,0.0360107421875,4.21142578125,4.82177734375,3.0517578125,12
2021-06-30 16:53:42.856036,0.99462890625,-0.1087646484375,0.0849609375,3.11279296875,-1.15966796875,0.6103515625,13
2021-06-30 16:53:42.921860,0.9986572265625,-0.0943603515625,0.0836181640625,-6.89697265625,0.244140625,-1.0986328125,12
2021-06-30 16:53:42.984692,0.9779052734375,-0.088623046875,0.099853515625,-12.8173828125,5.18798828125,-2.50244140625,12
2021-06-30 16:53:43.045530,0.998046875,-0.068359375,0.109375,-13.48876953125,8.11767578125,-3.47900390625,13
2021-06-30 16:53:43.106718,1.02001953125,-0.082763671875,0.1243896484375,-8.4228515625,6.04248046875,-3.47900390625,12
2021-06-30 16:53:43.299203,1.025390625,-0.07177734375,0.1070556640625,-15.7470703125,8.7890625,-3.2958984375,12
2021-06-30 16:53:43.536569,1.0196533203125,-0.0489501953125,0.095458984375,-27.52685546875,8.056640625,-2.86865234375,12
2021-06-30 16:53:43.607379,1.013671875,-0.020751953125,0.107177734375,-18.798828125,6.04248046875,-2.01416015625,12
2021-06-30 16:53:43.684218,1.01171875,-0.04248046875,0.0823974609375,-23.37646484375,-1.03759765625,-0.1220703125,12
2021-06-30 16:53:43.764241,1.0142822265625,-0.02587890625,0.1385498046875,-12.75634765625,-3.7841796875,0.91552734375,12
2021-06-30 16:53:43.825810,0.99072265625,-0.0577392578125,0.1641845703125,-14.7705078125,-4.5166015625,2.01416015625,12
2021-06-30 16:53:43.887654,1.00390625,-0.0386962890625,0.1773681640625,-11.962890625,-2.8076171875,3.2958984375,12
2021-06-30 16:53:43.950578,0.9964599609375,-0.0135498046875,0.21435546875,-18.5546875,0.48828125,3.23486328125,12
2021-06-30 16:53:44.013033,0.9903564453125,0.0584716796875,0.1602783203125,-24.84130859375,-0.8544921875,0.8544921875,13
2021-06-30 16:53:44.074994,0.9915771484375,0.0133056640625,0.143310546875,-15.44189453125,-4.94384765625,-3.41796875,12
2021-06-30 16:53:44.136947,0.98828125,0.0450439453125,0.2003173828125,-10.1318359375,-1.52587890625,-6.7138671875,12
2021-06-30 16:53:44.198985,1.023193359375,-0.0008544921875,0.1424560546875,-24.96337890625,-2.99072265625,-8.30078125,13
2021-06-30 16:53:44.260352,1.067138671875,0.0087890625,0.107421875,-29.84619140625,3.35693359375,-10.6201171875,12
2021-06-30 16:53:44.322187,0.953369140625,-0.0860595703125,0.05126953125,-25.390625,0.54931640625,-9.6435546875,12
2021-06-30 16:53:44.384021,1.0238037109375,-0.1058349609375,0.1121826171875,-36.2548828125,-1.46484375,-7.26318359375,13
2021-06-30 16:53:44.445856,1.071533203125,-0.10302734375,0.147216796875,-11.23046875,-29.9072265625,-5.79833984375,12
2021-06-30 16:53:44.508688,1.005615234375,-0.3214111328125,0.2359619140625,-4.45556640625,-48.27880859375,0.1220703125,13
2021-06-30 16:53:44.570523,0.948486328125,-0.2481689453125,0.2186279296875,-18.798828125,-34.72900390625,9.033203125,13
2021-06-30 16:53:44.616400,0.9444580078125,-0.1085205078125,0.2435302734375,-27.52685546875,-15.2587890625,5.67626953125,12
2021-06-30 16:53:44.678235,0.9649658203125,-0.17431640625,0.0892333984375,-13.48876953125,4.0283203125,1.77001953125,12
2021-06-30 16:53:44.740764,0.9261474609375,-0.20654296875,0.1793212890625,12.39013671875,9.09423828125,7.6904296875,12
2021-06-30 16:53:44.812571,0.9239501953125,-0.16943359375,0.199951171875,6.40869140625,-9.70458984375,5.67626953125,12
2021-06-30 16:53:44.900660,0.9119873046875,-0.1016845703125,0.268798828125,38.51318359375,2.62451171875,7.4462890625,12
2021-06-30 16:53:44.968479,0.9052734375,-0.051025390625,0.334716796875,32.53173828125,8.30078125,2.3193359375,12
2021-06-30 16:53:45.040371,0.9215087890625,-0.1270751953125,0.3243408203125,7.2021484375,8.48388671875,-8.23974609375,12
2021-06-30 16:53:45.101208,1.013916015625,-0.1951904296875,0.2703857421875,-11.3525390625,10.25390625,-9.58251953125,13
2021-06-30 16:53:45.164933,1.09375,-0.1282958984375,0.1422119140625,7.6904296875,-5.67626953125,1.0986328125,12
2021-06-30 16:53:45.227989,1.15625,-0.0474853515625,0.1798095703125,18.37158203125,-22.0947265625,0.9765625,12
2021-06-30 16:53:45.290655,1.0650634765625,-0.265625,0.2691650390625,25.45166015625,-26.30615234375,-6.591796875,12
2021-06-30 16:53:45.352873,1.043701171875,-0.2056884765625,0.2894287109375,24.5361328125,13.00048828125,-8.23974609375,13
2021-06-30 16:53:45.415653,1.210205078125,-0.116455078125,0.180908203125,2.685546875,55.84716796875,-13.18359375,12
2021-06-30 16:53:45.477535,1.128173828125,-0.0064697265625,0.0447998046875,-32.28759765625,47.54638671875,-16.4794921875,12
2021-06-30 16:53:45.539820,0.9932861328125,0.0106201171875,-0.242919921875,-80.322265625,12.5732421875,-23.86474609375,13
2021-06-30 16:53:45.601404,1.0521240234375,-0.0826416015625,-0.033447265625,-56.2744140625,-7.87353515625,-23.193359375,12
2021-06-30 16:53:45.680200,0.9788818359375,-0.064697265625,-0.0216064453125,-15.380859375,17.822265625,-5.06591796875,12
2021-06-30 16:53:45.742437,0.82666015625,-0.0633544921875,0.1593017578125,-20.1416015625,17.15087890625,-3.60107421875,12
2021-06-30 16:53:45.804610,0.8643798828125,0.0533447265625,0.1746826171875,-25.69580078125,-8.11767578125,-4.7607421875,12
2021-06-30 16:53:45.866342,0.910888671875,0.001220703125,0.1806640625,-58.10546875,-4.33349609375,-8.36181640625,12
2021-06-30 16:53:45.928038,0.861328125,-0.09326171875,0.23486328125,-105.95703125,11.53564453125,-9.6435546875,12
2021-06-30 16:53:45.991253,0.8297119140625,-0.0369873046875,0.2362060546875,-76.47705078125,0.8544921875,-13.5498046875,12
2021-06-30 16:53:46.053514,0.80615234375,-0.111328125,0.33740234375,-14.34326171875,-8.72802734375,-0.6103515625,12
2021-06-30 16:53:46.120036,0.7659912109375,-0.110107421875,0.43310546875,52.001953125,-7.080078125,7.38525390625,12
2021-06-30 16:53:46.181030,0.8880615234375,-0.0360107421875,0.397705078125,49.31640625,-12.75634765625,11.41357421875,12
2021-06-30 16:53:46.243532,1.283935546875,-0.1729736328125,0.19091796875,-49.13330078125,-5.126953125,6.89697265625,13
2021-06-30 16:53:46.305660,1.36083984375,-0.1395263671875,0.3173828125,-86.9140625,-12.6953125,-1.03759765625,13
2021-06-30 16:53:46.367799,1.0904541015625,0.016845703125,0.4793701171875,-65.91796875,26.85546875,-0.3662109375,12
2021-06-30 16:53:46.428838,1.2586669921875,0.0147705078125,0.47119140625,-0.30517578125,19.1650390625,18.61572265625,13
2021-06-30 16:53:46.492379,1.138916015625,-0.2586669921875,0.0855712890625,48.15673828125,36.62109375,10.43701171875,12
2021-06-30 16:53:46.554803,1.1890869140625,0.030029296875,-0.05078125,14.6484375,29.11376953125,14.404296875,13
2021-06-30 16:53:46.616493,1.0543212890625,0.3250732421875,-0.2933349609375,53.22265625,-39.4287109375,5.37109375,12
2021-06-30 16:53:46.677513,0.85107421875,-0.20654296875,0.020263671875,129.0283203125,-14.16015625,-0.42724609375,12
2021-06-30 16:53:46.739626,0.873046875,-0.20751953125,0.2724609375,96.25244140625,-32.89794921875,-3.23486328125,12
2021-06-30 16:53:46.801070,0.7987060546875,-0.2181396484375,0.301025390625,26.91650390625,-18.9208984375,2.3193359375,12
2021-06-30 16:53:46.863310,0.8720703125,-0.1849365234375,0.2188720703125,-8.23974609375,-14.7705078125,8.1787109375,12
2021-06-30 16:53:46.924727,0.9111328125,-0.05078125,0.1510009765625,-8.23974609375,-11.474609375,5.55419921875,12
2021-06-30 16:53:46.985789,0.834716796875,-0.1015625,0.162353515625,25.634765625,-17.9443359375,4.57763671875,13
2021-06-30 16:53:47.048072,0.82763671875,-0.169921875,0.287841796875,14.46533203125,-27.64892578125,4.638671875,12
2021-06-30 16:53:47.109577,0.7723388671875,-0.09912109375,0.3707275390625,25.7568359375,-1.64794921875,-3.23486328125,12
2021-06-30 16:53:47.180050,0.767822265625,-0.18359375,0.3741455078125,49.86572265625,6.9580078125,-2.74658203125,12
2021-06-30 16:53:47.242526,1.0777587890625,-0.3402099609375,0.2393798828125,40.58837890625,-17.578125,3.0517578125,12
2021-06-30 16:53:47.319612,1.1893310546875,-0.1279296875,0.2462158203125,25.5126953125,-17.15087890625,7.62939453125,13
2021-06-30 16:53:47.381358,1.110595703125,-0.138427734375,0.386962890625,-4.5166015625,-8.544921875,0.244140625,12
2021-06-30 16:53:47.442689,1.4058837890625,-0.2164306640625,0.24072265625,-12.939453125,12.26806640625,-3.41796875,12
2021-06-30 16:53:47.504430,1.2786865234375,0.20458984375,0.0540771484375,-4.638671875,34.66796875,-0.42724609375,12
2021-06-30 16:53:47.565907,1.154296875,-0.130859375,0.0853271484375,-11.53564453125,11.29150390625,-10.68115234375,12
2021-06-30 16:53:47.628267,0.850341796875,-0.120361328125,0.0577392578125,-54.931640625,13.427734375,-13.0615234375,12
2021-06-30 16:53:47.690468,0.870849609375,-0.0760498046875,0.049072265625,-78.43017578125,7.080078125,-2.99072265625,12
2021-06-30 16:53:47.752746,0.8658447265625,0.2615966796875,-0.0035400390625,-85.26611328125,4.08935546875,4.08935546875,12
2021-06-30 16:53:47.814433,0.836181640625,0.0877685546875,0.084228515625,-48.828125,-0.1220703125,-4.5166015625,12
2021-06-30 16:53:47.877585,0.8472900390625,-0.06640625,0.1539306640625,-69.27490234375,-10.498046875,-12.3291015625,12
2021-06-30 16:53:47.940796,0.9354248046875,-0.0489501953125,0.2547607421875,-123.10791015625,-0.3662109375,-19.95849609375,12
2021-06-30 16:53:48.003055,0.771484375,-0.1744384765625,0.3387451171875,-81.84814453125,5.67626953125,-4.08935546875,12
2021-06-30 16:53:48.064732,0.811767578125,-0.0906982421875,0.3729248046875,1.15966796875,-9.3994140625,-2.8076171875,12
2021-06-30 16:53:48.127102,0.7254638671875,-0.107177734375,0.339111328125,40.283203125,-1.5869140625,-1.46484375,13
2021-06-30 16:53:48.189847,0.8365478515625,-0.0819091796875,0.3299560546875,0.18310546875,4.7607421875,2.197265625,13
2021-06-30 16:53:48.251722,1.1961669921875,-0.0460205078125,0.3118896484375,-17.7001953125,-22.216796875,1.40380859375,12
2021-06-30 16:53:48.343601,1.226806640625,-0.182861328125,0.33203125,-43.0908203125,-39.73388671875,-4.7607421875,13
2021-06-30 16:53:48.404585,1.1761474609375,-0.0068359375,0.54931640625,-11.23046875,15.07568359375,1.3427734375,12
2021-06-30 16:53:48.466400,1.350830078125,0.0447998046875,0.517333984375,25.32958984375,27.099609375,19.1650390625,12
2021-06-30 16:53:48.528030,1.2669677734375,-0.361083984375,-0.0150146484375,111.63330078125,20.44677734375,13.7939453125,12
2021-06-30 16:53:48.591051,1.124755859375,-0.02685546875,-0.0274658203125,47.4853515625,7.62939453125,15.9912109375,12
2021-06-30 16:53:48.654067,0.9749755859375,0.228515625,-0.00390625,50.47607421875,-1.89208984375,6.53076171875,12
2021-06-30 16:53:48.716493,0.85791015625,-0.1082763671875,0.014892578125,79.4677734375,-12.75634765625,-2.197265625,12
2021-06-30 16:53:48.779461,0.8240966796875,-0.2249755859375,0.22021484375,65.0634765625,-28.86962890625,-3.41796875,12
2021-06-30 16:53:48.842373,0.727294921875,-0.3922119140625,0.20654296875,11.474609375,-22.3388671875,1.28173828125,13
2021-06-30 16:53:48.906422,0.834228515625,-0.2978515625,0.1727294921875,0.30517578125,-31.005859375,10.19287109375,12
2021-06-30 16:53:48.969479,0.8829345703125,0.0550537109375,0.18115234375,18.24951171875,-4.57763671875,8.97216796875,12
2021-06-30 16:53:49.032384,0.838134765625,-0.0234375,0.310791015625,55.72509765625,-23.49853515625,-1.77001953125,12
2021-06-30 16:53:49.103973,0.82373046875,-0.09765625,0.3753662109375,12.63427734375,-26.2451171875,-1.8310546875,13
