arrival_time,acc_x,acc_y,acc_z,rot_x,rot_y,rot_z,ir_dist
2021-06-30 16:44:39.770438,0.8634033203125,-0.1629638671875,-0.4781494140625,0.244140625,-1.708984375,3.662109375,13
2021-06-30 16:44:39.832662,0.8603515625,-0.163330078125,-0.478759765625,0.6103515625,-2.25830078125,3.47900390625,13
2021-06-30 16:44:39.894951,0.8642578125,-0.165283203125,-0.4725341796875,0.0,-2.25830078125,3.23486328125,13
2021-06-30 16:44:39.957007,0.8724365234375,-0.166748046875,-0.4676513671875,0.06103515625,-2.74658203125,2.0751953125,13
2021-06-30 16:44:40.020335,0.8690185546875,-0.167236328125,-0.4642333984375,-0.3662109375,-2.9296875,1.46484375,13
2021-06-30 16:44:40.083553,0.8736572265625,-0.17578125,-0.4619140625,0.54931640625,-2.50244140625,1.40380859375,13
2021-06-30 16:44:40.146463,0.8756103515625,-0.178955078125,-0.4564208984375,0.244140625,-2.685546875,1.28173828125,13
2021-06-30 16:44:40.208376,0.8758544921875,-0.1790771484375,-0.45703125,-0.48828125,-2.74658203125,1.708984375,13
2021-06-30 16:44:40.270754,0.8756103515625,-0.1778564453125,-0.45556640625,-0.1220703125,-2.74658203125,1.52587890625,13
2021-06-30 16:44:40.332097,0.8756103515625,-0.1778564453125,-0.4493408203125,-0.3662109375,-2.74658203125,1.40380859375,13
2021-06-30 16:44:40.393018,0.8773193359375,-0.1785888671875,-0.4517822265625,-0.79345703125,-3.23486328125,1.220703125,13
2021-06-30 16:44:40.455123,0.8770751953125,-0.1798095703125,-0.4473876953125,-0.79345703125,-3.7841796875,1.40380859375,13
2021-06-30 16:44:40.516852,0.8829345703125,-0.17431640625,-0.4449462890625,-0.42724609375,-4.5166015625,0.48828125,13
2021-06-30 16:44:40.579673,0.8817138671875,-0.17236328125,-0.4451904296875,-0.244140625,-4.57763671875,0.48828125,13
2021-06-30 16:44:40.642223,0.8831787109375,-0.1751708984375,-0.4449462890625,0.06103515625,-5.0048828125,0.244140625,13
2021-06-30 16:44:40.701116,0.88525390625,-0.172119140625,-0.4404296875,0.48828125,-5.67626953125,0.67138671875,13
2021-06-30 16:44:40.763816,0.8819580078125,-0.170654296875,-0.443359375,-0.244140625,-5.67626953125,0.30517578125,13
2021-06-30 16:44:40.825810,0.8841552734375,-0.1727294921875,-0.444091796875,-0.67138671875,-5.79833984375,0.244140625,13
2021-06-30 16:44:40.886653,0.88134765625,-0.167236328125,-0.44580078125,-1.03759765625,-6.2255859375,0.48828125,13
2021-06-30 16:44:40.950483,0.8807373046875,-0.1695556640625,-0.451416015625,-0.30517578125,-6.77490234375,0.42724609375,13
2021-06-30 16:44:41.013409,0.8797607421875,-0.168701171875,-0.448486328125,0.54931640625,-6.9580078125,0.3662109375,13
2021-06-30 16:44:41.076477,0.883544921875,-0.173095703125,-0.443603515625,0.30517578125,-6.77490234375,0.30517578125,13
2021-06-30 16:44:41.140393,0.8822021484375,-0.171875,-0.445068359375,0.1220703125,-7.32421875,0.54931640625,13
2021-06-30 16:44:41.203401,0.8851318359375,-0.1708984375,-0.4449462890625,-0.48828125,-8.056640625,0.9765625,13
2021-06-30 16:44:41.266459,0.894775390625,-0.1634521484375,-0.44384765625,-0.732421875,-8.97216796875,1.220703125,13
2021-06-30 16:44:41.355689,0.896728515625,-0.1573486328125,-0.4371337890625,-0.732421875,-9.58251953125,2.01416015625,13
2021-06-30 16:44:41.555274,0.88916015625,-0.1337890625,-0.4268798828125,-0.18310546875,-10.43701171875,2.197265625,13
2021-06-30 16:44:41.756647,0.8800048828125,-0.117919921875,-0.4287109375,-0.732421875,-11.77978515625,2.86865234375,13
2021-06-30 16:44:41.923707,0.8756103515625,-0.09521484375,-0.43408203125,-0.18310546875,-14.2822265625,3.23486328125,13
2021-06-30 16:44:42.036411,0.8909912109375,-0.0906982421875,-0.4451904296875,2.50244140625,-15.56396484375,4.82177734375,13
2021-06-30 16:44:42.123174,0.8985595703125,-0.0865478515625,-0.4544677734375,6.2255859375,-16.7236328125,5.18798828125,13
2021-06-30 16:44:42.173369,0.907470703125,-0.0989990234375,-0.4664306640625,13.36669921875,-18.4326171875,4.5166015625,13
2021-06-30 16:44:42.234399,0.90478515625,-0.123291015625,-0.458984375,17.88330078125,-17.15087890625,4.0283203125,14
2021-06-30 16:44:42.284417,0.892333984375,-0.1387939453125,-0.456298828125,21.240234375,-17.9443359375,3.2958984375,13
2021-06-30 16:44:42.346877,0.880615234375,-0.160888671875,-0.4613037109375,21.78955078125,-19.10400390625,2.13623046875,13
2021-06-30 16:44:42.408868,0.8599853515625,-0.1820068359375,-0.46484375,22.39990234375,-20.08056640625,1.953125,13
2021-06-30 16:44:42.470534,0.845458984375,-0.212646484375,-0.4742431640625,21.97265625,-22.52197265625,1.708984375,13
2021-06-30 16:44:42.532451,0.840087890625,-0.233154296875,-0.4779052734375,21.42333984375,-23.8037109375,2.0751953125,13
2021-06-30 16:44:42.594033,0.8338623046875,-0.25146484375,-0.478271484375,18.12744140625,-24.5361328125,1.953125,13
2021-06-30 16:44:42.655705,0.8314208984375,-0.2684326171875,-0.485107421875,16.17431640625,-27.64892578125,2.25830078125,13
2021-06-30 16:44:42.717886,0.8466796875,-0.3013916015625,-0.509765625,10.8642578125,-29.23583984375,2.86865234375,13
2021-06-30 16:44:42.821786,0.8302001953125,-0.26953125,-0.4942626953125,7.6904296875,-28.74755859375,-3.7841796875,13
2021-06-30 16:44:42.951439,0.7994384765625,-0.2589111328125,-0.4930419921875,11.5966796875,-30.94482421875,-7.75146484375,13
2021-06-30 16:44:43.027237,0.76318359375,-0.2724609375,-0.5137939453125,19.22607421875,-36.19384765625,-10.19287109375,13
2021-06-30 16:44:43.121983,0.7657470703125,-0.2977294921875,-0.542236328125,23.5595703125,-39.73388671875,-10.498046875,13
2021-06-30 16:44:43.179828,0.7430419921875,-0.3330078125,-0.549072265625,26.611328125,-40.10009765625,-12.02392578125,13
2021-06-30 16:44:43.240666,0.746826171875,-0.3826904296875,-0.5872802734375,23.25439453125,-43.212890625,-12.0849609375,13
2021-06-30 16:44:43.303498,0.7418212890625,-0.3853759765625,-0.5985107421875,20.3857421875,-41.8701171875,-12.451171875,13
2021-06-30 16:44:43.361573,0.74169921875,-0.3662109375,-0.612060546875,13.18359375,-39.9169921875,-13.00048828125,13
2021-06-30 16:44:43.423824,0.7069091796875,-0.3570556640625,-0.6033935546875,6.7138671875,-35.21728515625,-11.5966796875,13
2021-06-30 16:44:43.474787,0.8409423828125,-0.3316650390625,-0.5819091796875,1.0986328125,-34.7900390625,-13.18359375,13
2021-06-30 16:44:43.545456,0.6827392578125,-0.3499755859375,-0.68701171875,-9.82666015625,-33.935546875,-10.19287109375,13
2021-06-30 16:44:43.611525,0.6541748046875,-0.311767578125,-0.6688232421875,-13.916015625,-31.18896484375,-6.77490234375,13
2021-06-30 16:44:43.675467,0.6688232421875,-0.278076171875,-0.6748046875,-15.93017578125,-28.62548828125,-4.45556640625,13
2021-06-30 16:44:43.738445,0.6654052734375,-0.26611328125,-0.6671142578125,-17.333984375,-25.81787109375,-5.2490234375,13
2021-06-30 16:44:43.800452,0.65234375,-0.224853515625,-0.654541015625,-18.49365234375,-22.705078125,-3.72314453125,13
2021-06-30 16:44:43.862585,0.6617431640625,-0.2060546875,-0.6695556640625,-21.728515625,-25.20751953125,-3.23486328125,13
2021-06-30 16:44:43.924038,0.671142578125,-0.1807861328125,-0.6846923828125,-24.4140625,-26.0009765625,0.0,13
2021-06-30 16:44:43.986809,0.654052734375,-0.153076171875,-0.6700439453125,-26.67236328125,-23.5595703125,3.0517578125,14
2021-06-30 16:44:44.047542,0.662841796875,-0.1234130859375,-0.6837158203125,-27.83203125,-24.658203125,5.67626953125,13
2021-06-30 16:44:44.109494,0.683837890625,-0.121337890625,-0.6966552734375,-31.005859375,-22.39990234375,10.7421875,13
2021-06-30 16:44:44.170767,0.689208984375,-0.1148681640625,-0.6859130859375,-34.24072265625,-19.287109375,15.0146484375,13
2021-06-30 16:44:44.233506,0.71630859375,-0.125732421875,-0.686279296875,-38.39111328125,-16.54052734375,20.01953125,13
2021-06-30 16:44:44.295976,0.7061767578125,-0.133056640625,-0.7132568359375,-44.98291015625,-14.34326171875,24.35302734375,13
2021-06-30 16:44:44.358342,0.6998291015625,-0.1624755859375,-0.80224609375,-56.94580078125,-16.17431640625,28.74755859375,13
2021-06-30 16:44:44.419610,0.8447265625,0.03466796875,-1.06591796875,-79.58984375,-38.57421875,34.912109375,13
2021-06-30 16:44:44.481993,0.626220703125,0.1103515625,-1.16943359375,-61.8896484375,-35.0341796875,27.28271484375,13
2021-06-30 16:44:44.543692,0.276611328125,0.275634765625,-1.0701904296875,-49.13330078125,-16.6015625,21.17919921875,13
2021-06-30 16:44:44.604708,0.2186279296875,0.21044921875,-1.072265625,-38.26904296875,-13.24462890625,30.82275390625,13
2021-06-30 16:44:44.666439,0.2955322265625,0.1934814453125,-1.010009765625,-30.517578125,-1.64794921875,48.27880859375,13
2021-06-30 16:44:44.731255,0.3775634765625,0.147216796875,-0.8883056640625,-27.64892578125,9.765625,54.3212890625,13
2021-06-30 16:44:44.793180,0.4083251953125,0.0982666015625,-0.837890625,-26.4892578125,13.12255859375,51.6357421875,13
2021-06-30 16:44:44.855277,0.43994140625,0.111572265625,-0.7744140625,-21.97265625,14.09912109375,47.30224609375,13
2021-06-30 16:44:44.917103,0.48193359375,0.0946044921875,-0.7120361328125,-14.892578125,14.34326171875,44.37255859375,13
2021-06-30 16:44:44.978663,0.5401611328125,0.0418701171875,-0.66845703125,-7.87353515625,9.8876953125,40.22216796875,13
2021-06-30 16:44:45.040135,0.5858154296875,0.021484375,-0.6549072265625,-5.859375,5.43212890625,33.26416015625,13
2021-06-30 16:44:45.103594,0.625244140625,0.019775390625,-0.635986328125,-2.685546875,0.9765625,26.79443359375,13
2021-06-30 16:44:45.165987,0.6220703125,0.0106201171875,-0.614990234375,1.64794921875,-5.4931640625,19.04296875,13
2021-06-30 16:44:45.229520,0.610107421875,0.0421142578125,-0.66650390625,6.9580078125,-9.33837890625,11.29150390625,13
2021-06-30 16:44:45.294536,0.603515625,0.0985107421875,-0.763916015625,9.8876953125,-16.6015625,-2.9296875,13
2021-06-30 16:44:45.356458,0.6920166015625,0.06298828125,-0.8406982421875,17.88330078125,-12.451171875,-10.68115234375,14
2021-06-30 16:44:45.418140,0.69873046875,-0.004638671875,-0.821533203125,25.87890625,-8.1787109375,-12.14599609375,13
2021-06-30 16:44:45.481535,0.9229736328125,-0.041259765625,-0.9705810546875,22.216796875,-15.31982421875,-12.63427734375,13
2021-06-30 16:44:45.542825,0.821044921875,-0.2181396484375,-1.11767578125,24.90234375,-15.869140625,-13.36669921875,13
2021-06-30 16:44:45.604220,0.4378662109375,-0.31689453125,-1.092041015625,15.44189453125,-19.8974609375,1.0986328125,13
2021-06-30 16:44:45.665354,0.2900390625,-0.3221435546875,-1.1065673828125,12.6953125,-23.0712890625,0.79345703125,13
2021-06-30 16:44:45.727633,0.3828125,-0.1656494140625,-1.024169921875,1.28173828125,-17.02880859375,-25.2685546875,13
2021-06-30 16:44:45.791244,0.3408203125,-0.1815185546875,-0.9713134765625,10.92529296875,-7.14111328125,-41.80908203125,13
2021-06-30 16:44:45.853459,0.3653564453125,-0.128662109375,-0.8397216796875,19.10400390625,-0.67138671875,-47.54638671875,13
2021-06-30 16:44:45.927036,0.3677978515625,-0.1053466796875,-0.737060546875,25.5126953125,6.34765625,-51.81884765625,13
2021-06-30 16:44:45.988585,0.40380859375,-0.1348876953125,-0.7125244140625,24.23095703125,5.126953125,-51.69677734375,13
2021-06-30 16:44:46.051693,0.4671630859375,-0.1341552734375,-0.7054443359375,14.70947265625,-1.40380859375,-44.3115234375,13
2021-06-30 16:44:46.114179,0.5211181640625,-0.1646728515625,-0.708251953125,11.41357421875,-5.92041015625,-36.1328125,13
2021-06-30 16:44:46.175499,0.55078125,-0.1263427734375,-0.7061767578125,4.82177734375,-10.68115234375,-28.62548828125,13
2021-06-30 16:44:46.237723,0.5540771484375,-0.1182861328125,-0.7193603515625,2.685546875,-11.962890625,-24.96337890625,13
2021-06-30 16:44:46.299849,0.544921875,-0.077880859375,-0.7259521484375,0.30517578125,-11.5966796875,-27.9541015625,13
2021-06-30 16:44:46.362272,0.553466796875,-0.0848388671875,-0.742919921875,-0.91552734375,-10.92529296875,-20.56884765625,13
2021-06-30 16:44:46.424386,0.5543212890625,-0.052734375,-0.7569580078125,-2.62451171875,-10.7421875,-16.357421875,13
2021-06-30 16:44:46.493061,0.632080078125,-0.0528564453125,-0.80517578125,-4.5166015625,-14.2822265625,-9.46044921875,13
2021-06-30 16:44:46.559283,0.6300048828125,-0.0478515625,-0.8365478515625,-10.6201171875,-15.7470703125,-4.08935546875,13
2021-06-30 16:44:46.621601,0.6099853515625,-0.0487060546875,-0.8216552734375,-13.36669921875,-12.02392578125,0.6103515625,13
2021-06-30 16:44:46.683440,0.7841796875,-0.0712890625,-0.968505859375,-23.8037109375,-9.94873046875,13.7939453125,13
2021-06-30 16:44:46.744300,0.7259521484375,0.1898193359375,-1.0858154296875,-35.21728515625,-25.390625,20.3857421875,13
2021-06-30 16:44:46.807314,0.4622802734375,0.21533203125,-1.1214599609375,-18.73779296875,-24.23095703125,10.80322265625,13
2021-06-30 16:44:46.868880,0.3096923828125,0.3121337890625,-1.083984375,-10.7421875,-20.20263671875,0.54931640625,13
2021-06-30 16:44:46.931709,0.2701416015625,0.2587890625,-1.0263671875,2.62451171875,-16.41845703125,15.68603515625,13
2021-06-30 16:44:46.993702,0.26611328125,0.134033203125,-0.9947509765625,5.67626953125,-12.02392578125,36.865234375,13
2021-06-30 16:44:47.054578,0.321044921875,0.0504150390625,-0.918701171875,-3.41796875,-5.0048828125,37.4755859375,13
2021-06-30 16:44:47.120617,0.341796875,0.071533203125,-0.8045654296875,-9.27734375,5.615234375,31.31103515625,13
2021-06-30 16:44:47.183399,0.390869140625,0.078369140625,-0.759033203125,-5.7373046875,8.6669921875,27.83203125,13
2021-06-30 16:44:47.246263,0.484130859375,0.0693359375,-0.73193359375,1.03759765625,6.8359375,23.4375,13
2021-06-30 16:44:47.308363,0.5167236328125,0.0697021484375,-0.7310791015625,2.99072265625,1.15966796875,15.07568359375,13
2021-06-30 16:44:47.369200,0.5478515625,0.0509033203125,-0.7325439453125,5.43212890625,-3.11279296875,11.77978515625,13
2021-06-30 16:44:47.430717,0.5438232421875,0.04052734375,-0.7127685546875,7.4462890625,-5.92041015625,9.6435546875,13
2021-06-30 16:44:47.492240,0.5330810546875,0.03955078125,-0.7100830078125,10.43701171875,-7.99560546875,8.23974609375,13
2021-06-30 16:44:47.554781,0.521240234375,0.043701171875,-0.7515869140625,14.22119140625,-8.7890625,6.89697265625,13
2021-06-30 16:44:47.616558,0.4998779296875,0.0487060546875,-0.8201904296875,16.845703125,-7.2021484375,3.23486328125,13
2021-06-30 16:44:47.681114,0.5579833984375,0.015380859375,-0.8800048828125,18.37158203125,-2.685546875,-1.708984375,13
2021-06-30 16:44:47.743024,0.5947265625,-0.0228271484375,-0.885009765625,20.56884765625,-1.0986328125,3.41796875,13
