arrival_time,acc_x,acc_y,acc_z,rot_x,rot_y,rot_z,ir_dist
2021-06-30 16:49:52.558728,0.4278564453125,0.0081787109375,-0.889404296875,0.244140625,-5.615234375,-1.03759765625,13
2021-06-30 16:49:52.620626,0.431884765625,0.0068359375,-0.892578125,0.79345703125,-5.9814453125,-1.8310546875,13
2021-06-30 16:49:52.683084,0.4285888671875,0.0098876953125,-0.89306640625,1.3427734375,-6.2255859375,-2.197265625,13
2021-06-30 16:49:52.745295,0.4228515625,0.01416015625,-0.889892578125,1.64794921875,-5.79833984375,-2.3193359375,13
2021-06-30 16:49:52.807696,0.4371337890625,0.0123291015625,-0.8939208984375,0.9765625,-6.77490234375,-1.708984375,13
2021-06-30 16:49:52.869567,0.4288330078125,-0.000244140625,-0.897216796875,-0.18310546875,-6.53076171875,-0.732421875,13
2021-06-30 16:49:52.933588,0.424560546875,-0.004150390625,-0.8931884765625,-1.52587890625,-5.79833984375,1.40380859375,13
2021-06-30 16:49:52.996390,0.4315185546875,0.001953125,-0.890869140625,-2.44140625,-5.7373046875,2.44140625,13
2021-06-30 16:49:53.058861,0.44091796875,0.00732421875,-0.9005126953125,-2.50244140625,-6.4697265625,2.44140625,13
2021-06-30 16:49:53.121393,0.431640625,0.011962890625,-0.896484375,-2.3193359375,-6.7138671875,1.220703125,13
2021-06-30 16:49:53.183307,0.420166015625,0.0198974609375,-0.895263671875,-1.64794921875,-7.01904296875,0.732421875,13
2021-06-30 16:49:53.244173,0.4169921875,0.016357421875,-0.898193359375,-1.03759765625,-7.9345703125,0.91552734375,13
2021-06-30 16:49:53.306326,0.4141845703125,0.0146484375,-0.8994140625,-0.48828125,-8.11767578125,0.9765625,13
2021-06-30 16:49:53.368346,0.41650390625,0.0123291015625,-0.90576171875,-0.42724609375,-7.6904296875,1.0986328125,14
2021-06-30 16:49:53.430590,0.4171142578125,0.0162353515625,-0.9012451171875,-0.3662109375,-7.14111328125,1.03759765625,13
2021-06-30 16:49:53.491650,0.4149169921875,0.02001953125,-0.9012451171875,-0.1220703125,-6.89697265625,0.30517578125,13
2021-06-30 16:49:53.554059,0.418212890625,0.017822265625,-0.9039306640625,-0.06103515625,-6.53076171875,0.6103515625,13
2021-06-30 16:49:53.615959,0.4183349609375,0.0150146484375,-0.901123046875,0.30517578125,-6.89697265625,0.67138671875,13
2021-06-30 16:49:53.676963,0.413330078125,0.0179443359375,-0.89892578125,-0.3662109375,-7.26318359375,0.54931640625,13
2021-06-30 16:49:53.738474,0.41015625,0.01611328125,-0.902099609375,-0.6103515625,-7.32421875,0.91552734375,13
2021-06-30 16:49:53.801646,0.4144287109375,0.0184326171875,-0.9061279296875,-0.48828125,-7.2021484375,0.79345703125,13
2021-06-30 16:49:53.861695,0.413330078125,0.017333984375,-0.9046630859375,0.0,-6.8359375,0.8544921875,13
2021-06-30 16:49:53.923499,0.4083251953125,0.0223388671875,-0.8975830078125,-0.1220703125,-5.859375,0.18310546875,13
2021-06-30 16:49:53.986514,0.40771484375,0.02783203125,-0.887451171875,0.48828125,-4.638671875,0.67138671875,13
2021-06-30 16:49:54.050343,0.4310302734375,0.0419921875,-0.8966064453125,0.6103515625,-5.55419921875,0.732421875,13
2021-06-30 16:49:54.113425,0.4627685546875,0.039794921875,-0.900146484375,1.64794921875,-6.65283203125,-0.1220703125,13
2021-06-30 16:49:54.172269,0.4676513671875,0.049072265625,-0.884765625,1.0986328125,-6.4697265625,-0.1220703125,13
2021-06-30 16:49:54.233105,0.44580078125,0.063720703125,-0.8590087890625,1.953125,-7.2021484375,0.54931640625,13
2021-06-30 16:49:54.299927,0.445556640625,0.0758056640625,-0.86376953125,2.3193359375,-8.4228515625,2.25830078125,13
2021-06-30 16:49:54.356774,0.47509765625,0.075927734375,-0.8623046875,3.0517578125,-9.09423828125,2.0751953125,13
2021-06-30 16:49:54.418609,0.4896240234375,0.0789794921875,-0.8636474609375,4.2724609375,-11.1083984375,2.13623046875,13
2021-06-30 16:49:54.479447,0.4942626953125,0.0672607421875,-0.8544921875,5.859375,-12.75634765625,2.9296875,13
2021-06-30 16:49:54.695868,0.48681640625,0.0587158203125,-0.8448486328125,5.55419921875,-14.58740234375,4.45556640625,13
2021-06-30 16:49:54.890348,0.474853515625,0.0589599609375,-0.847412109375,3.90625,-17.27294921875,5.859375,13
2021-06-30 16:49:55.050712,0.4598388671875,0.0535888671875,-0.8668212890625,3.23486328125,-20.08056640625,7.568359375,13
2021-06-30 16:49:55.170524,0.4412841796875,0.051513671875,-0.88623046875,3.90625,-22.216796875,9.46044921875,13
2021-06-30 16:49:55.243182,0.4229736328125,0.0343017578125,-0.904541015625,3.23486328125,-23.13232421875,10.3759765625,13
2021-06-30 16:49:55.302366,0.39013671875,0.0233154296875,-0.926513671875,5.2490234375,-22.5830078125,11.90185546875,13
2021-06-30 16:49:55.367072,0.3466796875,-0.00732421875,-0.9478759765625,8.056640625,-20.5078125,12.87841796875,13
2021-06-30 16:49:55.428247,0.2991943359375,-0.0765380859375,-0.9588623046875,6.40869140625,-15.80810546875,12.26806640625,13
2021-06-30 16:49:55.490449,0.28955078125,-0.1180419921875,-0.9422607421875,4.39453125,-10.92529296875,11.41357421875,13
2021-06-30 16:49:55.551653,0.30810546875,-0.1751708984375,-0.935302734375,1.8310546875,-7.2021484375,7.87353515625,13
2021-06-30 16:49:55.612586,0.3824462890625,-0.16845703125,-0.9554443359375,0.18310546875,-10.68115234375,0.0,13
2021-06-30 16:49:55.674678,0.3863525390625,-0.14111328125,-0.9638671875,4.638671875,-11.71875,-8.85009765625,13
2021-06-30 16:49:55.737703,0.3709716796875,-0.1473388671875,-0.939697265625,15.93017578125,-10.1318359375,-22.27783203125,13
2021-06-30 16:49:55.799749,0.3834228515625,-0.1702880859375,-0.8948974609375,23.92578125,-6.4697265625,-28.1982421875,13
2021-06-30 16:49:55.865661,0.373779296875,-0.2015380859375,-0.8380126953125,27.28271484375,-5.126953125,-29.23583984375,13
2021-06-30 16:49:55.925501,0.3936767578125,-0.2132568359375,-0.8321533203125,24.658203125,-7.75146484375,-28.6865234375,13
2021-06-30 16:49:55.988333,0.42431640625,-0.2330322265625,-0.831298828125,17.333984375,-9.33837890625,-27.89306640625,13
2021-06-30 16:49:56.049170,0.44091796875,-0.2344970703125,-0.83984375,6.2255859375,-12.26806640625,-27.4658203125,13
2021-06-30 16:49:56.175301,0.4644775390625,-0.2137451171875,-0.840576171875,-1.64794921875,-15.07568359375,-26.2451171875,13
2021-06-30 16:49:56.331254,0.452880859375,-0.193603515625,-0.8485107421875,-10.68115234375,-15.56396484375,-20.81298828125,14
2021-06-30 16:49:56.418021,0.4373779296875,-0.163330078125,-0.867431640625,-16.11328125,-15.2587890625,-17.76123046875,13
2021-06-30 16:49:56.496652,0.41845703125,-0.1651611328125,-0.8792724609375,-20.81298828125,-11.53564453125,-12.02392578125,13
2021-06-30 16:49:56.609718,0.42041015625,-0.1790771484375,-0.916748046875,-28.1982421875,-9.09423828125,-6.28662109375,13
2021-06-30 16:49:56.708756,0.446533203125,-0.1629638671875,-0.9241943359375,-38.2080078125,-7.62939453125,0.3662109375,13
2021-06-30 16:49:56.837176,0.3604736328125,-0.07275390625,-1.036376953125,-53.22265625,-1.0986328125,7.4462890625,13
2021-06-30 16:49:56.901534,0.5546875,0.11474609375,-1.2347412109375,-66.40625,-15.0146484375,12.5732421875,13
2021-06-30 16:49:56.953636,0.4342041015625,0.2952880859375,-1.2742919921875,-44.61669921875,-14.7705078125,15.869140625,13
2021-06-30 16:49:57.016584,0.0643310546875,0.436279296875,-1.0982666015625,-24.71923828125,5.2490234375,19.04296875,13
2021-06-30 16:49:57.077426,0.051513671875,0.4234619140625,-1.0638427734375,-15.44189453125,6.16455078125,27.52685546875,13
2021-06-30 16:49:57.140263,0.1590576171875,0.317626953125,-0.96240234375,-13.97705078125,10.498046875,35.0341796875,13
2021-06-30 16:49:57.203703,0.218505859375,0.2537841796875,-0.877197265625,-8.9111328125,17.39501953125,34.85107421875,13
2021-06-30 16:49:57.266223,0.291748046875,0.2120361328125,-0.800048828125,-2.44140625,20.263671875,25.390625,13
2021-06-30 16:49:57.327092,0.3538818359375,0.205078125,-0.747802734375,5.0048828125,20.93505859375,18.85986328125,13
2021-06-30 16:49:57.388167,0.43603515625,0.1651611328125,-0.7166748046875,14.6484375,14.0380859375,10.07080078125,13
2021-06-30 16:49:57.481129,0.5496826171875,0.1297607421875,-0.70849609375,16.17431640625,-2.0751953125,4.08935546875,13
2021-06-30 16:49:57.543417,0.5672607421875,0.0859375,-0.7257080078125,18.4326171875,-10.1318359375,3.662109375,13
2021-06-30 16:49:57.606192,0.544921875,0.09375,-0.71630859375,18.1884765625,-13.671875,2.86865234375,13
2021-06-30 16:49:57.667809,0.515380859375,0.0849609375,-0.7412109375,15.56396484375,-17.08984375,5.67626953125,13
2021-06-30 16:49:57.730950,0.493896484375,0.083984375,-0.782470703125,9.3994140625,-20.08056640625,6.40869140625,13
2021-06-30 16:49:57.787813,0.48095703125,0.103271484375,-0.9669189453125,1.708984375,-28.3203125,8.1787109375,13
2021-06-30 16:49:57.848366,0.478271484375,0.099609375,-1.0146484375,1.28173828125,-30.6396484375,12.26806640625,13
2021-06-30 16:49:57.910615,0.38427734375,0.106201171875,-1.040283203125,9.46044921875,-19.59228515625,18.73779296875,13
2021-06-30 16:49:57.973603,0.464599609375,-0.0377197265625,-1.2415771484375,12.20703125,-16.845703125,16.11328125,13
2021-06-30 16:49:58.036239,0.41064453125,-0.1507568359375,-1.2667236328125,14.95361328125,-6.28662109375,12.39013671875,13
2021-06-30 16:49:58.099038,0.202880859375,-0.2178955078125,-1.1903076171875,9.3994140625,3.2958984375,15.7470703125,13
2021-06-30 16:49:58.160535,0.1407470703125,-0.14501953125,-1.1839599609375,1.77001953125,-1.0986328125,-1.3427734375,13
2021-06-30 16:49:58.223351,0.1636962890625,-0.043212890625,-1.033447265625,-0.8544921875,4.150390625,-17.88330078125,13
2021-06-30 16:49:58.285300,0.213623046875,-0.0052490234375,-0.864013671875,13.12255859375,15.68603515625,-31.79931640625,13
2021-06-30 16:49:58.346570,0.2427978515625,-0.0220947265625,-0.776611328125,20.93505859375,21.05712890625,-35.33935546875,13
2021-06-30 16:49:58.408208,0.341552734375,-0.0731201171875,-0.7265625,20.56884765625,20.99609375,-27.89306640625,13
2021-06-30 16:49:58.470482,0.4263916015625,-0.0777587890625,-0.70068359375,10.80322265625,13.0615234375,-25.45166015625,13
2021-06-30 16:49:58.532644,0.5023193359375,-0.072265625,-0.6903076171875,7.87353515625,4.08935546875,-20.6298828125,13
2021-06-30 16:49:58.596002,0.5009765625,-0.1207275390625,-0.7100830078125,9.21630859375,-7.080078125,-17.7001953125,13
2021-06-30 16:49:58.658506,0.5118408203125,-0.114501953125,-0.714599609375,6.4697265625,-12.02392578125,-20.5078125,13
2021-06-30 16:49:58.721349,0.4610595703125,-0.1231689453125,-0.7025146484375,1.28173828125,-15.56396484375,-19.775390625,13
2021-06-30 16:49:58.783434,0.435302734375,-0.117919921875,-0.802001953125,-3.96728515625,-21.8505859375,-16.05224609375,13
2021-06-30 16:49:58.845971,0.453857421875,-0.14208984375,-0.9307861328125,-5.43212890625,-22.15576171875,-12.51220703125,13
2021-06-30 16:49:58.907531,0.549072265625,-0.1217041015625,-1.023681640625,-12.39013671875,-19.8974609375,-14.0380859375,13
2021-06-30 16:49:58.970818,0.486328125,-0.100830078125,-0.99267578125,-13.48876953125,-9.1552734375,-11.3525390625,13
2021-06-30 16:49:59.032383,0.5914306640625,0.077880859375,-1.168701171875,-33.38623046875,-15.9912109375,-0.6103515625,13
2021-06-30 16:49:59.094691,0.42822265625,0.190673828125,-1.3072509765625,-21.05712890625,-15.56396484375,1.28173828125,13
2021-06-30 16:49:59.158233,0.228271484375,0.353759765625,-1.2158203125,-5.55419921875,-6.7138671875,2.01416015625,13
2021-06-30 16:49:59.220452,0.1580810546875,0.3314208984375,-1.1673583984375,0.67138671875,-6.34765625,14.22119140625,13
2021-06-30 16:49:59.282346,0.18896484375,0.2191162109375,-1.0816650390625,2.685546875,-1.64794921875,26.611328125,13
2021-06-30 16:49:59.345644,0.263427734375,0.097412109375,-0.9345703125,1.3427734375,9.765625,34.36279296875,13
2021-06-30 16:49:59.407897,0.2977294921875,0.0787353515625,-0.822998046875,0.6103515625,16.05224609375,32.65380859375,13
2021-06-30 16:49:59.468967,0.3531494140625,0.053955078125,-0.7054443359375,10.31494140625,22.76611328125,24.7802734375,13
2021-06-30 16:49:59.530510,0.425048828125,0.0439453125,-0.6697998046875,13.24462890625,19.95849609375,13.671875,13
2021-06-30 16:49:59.592852,0.4871826171875,0.014892578125,-0.6539306640625,11.77978515625,9.09423828125,7.01904296875,13
2021-06-30 16:49:59.655028,0.5238037109375,0.0274658203125,-0.6622314453125,6.591796875,-5.67626953125,0.79345703125,13
2021-06-30 16:49:59.717183,0.5355224609375,0.033203125,-0.6807861328125,6.77490234375,-14.22119140625,-2.3193359375,14
2021-06-30 16:49:59.779771,0.4935302734375,0.052490234375,-0.7381591796875,7.38525390625,-20.56884765625,-3.90625,13
2021-06-30 16:49:59.841255,0.411865234375,0.07080078125,-0.767822265625,8.23974609375,-20.44677734375,-5.92041015625,13
2021-06-30 16:49:59.903584,0.4334716796875,0.104248046875,-1.07568359375,-1.28173828125,-30.6396484375,-1.953125,13
2021-06-30 16:49:59.966374,0.53125,0.0460205078125,-1.1279296875,1.89208984375,-24.0478515625,3.23486328125,13
2021-06-30 16:50:00.028743,0.47802734375,0.103515625,-1.0428466796875,9.21630859375,-1.0986328125,8.23974609375,13
2021-06-30 16:50:00.091432,0.4244384765625,-0.096923828125,-1.17919921875,15.44189453125,0.48828125,9.033203125,13
2021-06-30 16:50:00.152551,0.452392578125,-0.1883544921875,-1.21728515625,15.56396484375,8.9111328125,4.69970703125,13
2021-06-30 16:50:00.213723,0.3116455078125,-0.215087890625,-1.0068359375,15.80810546875,25.7568359375,-2.685546875,13
2021-06-30 16:50:00.276896,0.3509521484375,-0.1766357421875,-1.016357421875,12.75634765625,16.41845703125,-14.404296875,13
2021-06-30 16:50:00.338901,0.4212646484375,-0.140869140625,-0.974365234375,10.55908203125,7.75146484375,-34.3017578125,13
2021-06-30 16:50:00.401632,0.4453125,-0.1341552734375,-0.892333984375,13.916015625,6.7138671875,-42.90771484375,13
2021-06-30 16:50:00.464885,0.4356689453125,-0.0838623046875,-0.7425537109375,17.333984375,7.6904296875,-40.22216796875,13
2021-06-30 16:50:00.526855,0.4481201171875,-0.1136474609375,-0.6759033203125,14.34326171875,7.75146484375,-31.43310546875,13
