arrival_time,acc_x,acc_y,acc_z,rot_x,rot_y,rot_z,ir_dist
2021-06-29 12:24:14.875085,0.9825439453125,0.056640625,-0.0068359375,-0.9765625,-3.96728515625,-2.0751953125,4
2021-06-29 12:24:14.938236,0.9891357421875,0.0438232421875,-0.0152587890625,-3.5400390625,-3.0517578125,0.18310546875,4
2021-06-29 12:24:15.000906,0.9886474609375,0.046875,-0.011474609375,-4.638671875,-2.3193359375,0.244140625,4
2021-06-29 12:24:15.063507,0.9796142578125,0.03369140625,-0.0087890625,-2.44140625,-2.38037109375,-0.48828125,4
2021-06-29 12:24:15.124886,0.9910888671875,0.0255126953125,-0.01220703125,-3.11279296875,-3.47900390625,-3.41796875,4
2021-06-29 12:24:15.186424,1.004638671875,0.0396728515625,-0.031005859375,-3.173828125,-2.62451171875,-3.173828125,4
2021-06-29 12:24:15.247887,1.03173828125,0.047607421875,-0.034912109375,-1.46484375,-1.708984375,-2.197265625,4
2021-06-29 12:24:15.309749,1.0106201171875,0.0423583984375,-0.0245361328125,1.03759765625,-0.9765625,0.30517578125,4
2021-06-29 12:24:15.372196,1.0069580078125,0.0247802734375,-0.0135498046875,-1.708984375,-3.23486328125,-0.3662109375,4
2021-06-29 12:24:15.433844,1.00146484375,0.0352783203125,-0.0263671875,-5.92041015625,-3.23486328125,-1.03759765625,4
2021-06-29 12:24:15.496718,1.00439453125,0.04443359375,-0.0186767578125,-2.8076171875,-4.94384765625,-2.13623046875,4
2021-06-29 12:24:15.558587,1.0155029296875,0.0374755859375,-0.0069580078125,2.25830078125,-5.92041015625,-2.44140625,4
2021-06-29 12:24:15.621143,1.019287109375,0.024169921875,-0.0125732421875,3.7841796875,-5.9814453125,-3.2958984375,4
2021-06-29 12:24:15.684373,1.0030517578125,0.041748046875,0.003662109375,4.0283203125,-7.32421875,-4.2724609375,4
2021-06-29 12:24:15.746997,0.996826171875,0.03125,-0.001708984375,4.57763671875,-8.7890625,-3.72314453125,4
2021-06-29 12:24:15.809517,1.0020751953125,0.028076171875,-0.0069580078125,-0.6103515625,-8.23974609375,-4.45556640625,4
2021-06-29 12:24:15.872571,0.99853515625,0.04296875,-0.0093994140625,-1.15966796875,-6.103515625,-3.60107421875,4
2021-06-29 12:24:15.934430,1.0030517578125,0.046630859375,-0.0145263671875,2.685546875,-6.7138671875,-2.25830078125,4
2021-06-29 12:24:15.997059,1.01953125,0.037353515625,-0.01611328125,3.72314453125,-5.55419921875,-1.15966796875,4
2021-06-29 12:24:16.060919,1.025390625,0.0369873046875,-0.012939453125,4.0283203125,-2.8076171875,0.244140625,4
2021-06-29 12:24:16.124718,1.01513671875,0.03515625,-0.005859375,2.62451171875,-2.8076171875,2.0751953125,4
2021-06-29 12:24:16.187577,0.999755859375,0.0445556640625,-0.024658203125,-2.86865234375,-2.38037109375,3.84521484375,4
2021-06-29 12:24:16.251406,0.9952392578125,0.06005859375,-0.020263671875,-7.26318359375,-1.708984375,4.150390625,4
2021-06-29 12:24:16.312216,0.99755859375,0.052734375,-0.0263671875,-6.89697265625,-2.5634765625,2.685546875,4
2021-06-29 12:24:16.374050,1.008056640625,0.038330078125,-0.015869140625,-0.18310546875,-3.84521484375,-0.42724609375,4
2021-06-29 12:24:16.434888,1.0133056640625,0.0333251953125,-0.0120849609375,4.2724609375,-3.5400390625,-2.62451171875,4
2021-06-29 12:24:16.497720,1.02001953125,0.042236328125,-0.0179443359375,5.31005859375,-2.8076171875,-2.9296875,4
2021-06-29 12:24:16.560552,1.0111083984375,0.0419921875,-0.0125732421875,6.8359375,-2.62451171875,-2.62451171875,4
2021-06-29 12:24:16.623384,1.0028076171875,0.044677734375,-0.018310546875,5.0048828125,-2.99072265625,-2.0751953125,4
2021-06-29 12:24:16.684221,0.997314453125,0.047119140625,-0.0198974609375,2.685546875,-3.72314453125,-2.25830078125,4
2021-06-29 12:24:16.747166,1.0006103515625,0.0460205078125,-0.0123291015625,2.3193359375,-3.96728515625,-1.52587890625,4
2021-06-29 12:24:16.810961,1.0,0.0419921875,-0.011962890625,2.3193359375,-4.69970703125,-1.40380859375,4
2021-06-29 12:24:16.873820,1.003662109375,0.0374755859375,-0.0074462890625,2.5634765625,-5.2490234375,-1.52587890625,4
2021-06-29 12:24:16.935668,1.00537109375,0.0418701171875,-0.0123291015625,2.44140625,-4.94384765625,-0.91552734375,4
2021-06-29 12:24:16.999521,1.0101318359375,0.0447998046875,-0.020263671875,2.74658203125,-4.5166015625,-0.67138671875,4
2021-06-29 12:24:17.061332,1.0072021484375,0.0455322265625,-0.0186767578125,1.5869140625,-4.2724609375,0.06103515625,4
2021-06-29 12:24:17.124422,1.0054931640625,0.0489501953125,-0.0208740234375,0.3662109375,-4.45556640625,0.06103515625,4
2021-06-29 12:24:17.187741,1.005615234375,0.048095703125,-0.016357421875,0.244140625,-5.0048828125,0.18310546875,4
2021-06-29 12:24:17.249598,1.004638671875,0.0467529296875,-0.0157470703125,-1.15966796875,-5.2490234375,0.0,4
2021-06-29 12:24:17.311098,1.0050048828125,0.0433349609375,-0.02685546875,-0.30517578125,-5.31005859375,-0.91552734375,4
2021-06-29 12:24:17.373725,1.006591796875,0.0504150390625,-0.0184326171875,-0.1220703125,-5.31005859375,-1.52587890625,4
2021-06-29 12:24:17.435321,1.0115966796875,0.045654296875,-0.023193359375,-0.1220703125,-5.31005859375,-1.15966796875,4
2021-06-29 12:24:17.498129,1.01171875,0.0469970703125,-0.0220947265625,-0.732421875,-4.0283203125,-0.54931640625,4
2021-06-29 12:24:17.558738,1.0040283203125,0.0457763671875,-0.0155029296875,-0.3662109375,-3.96728515625,-0.67138671875,4
2021-06-29 12:24:17.636530,1.0067138671875,0.0443115234375,-0.016845703125,0.244140625,-3.72314453125,-0.732421875,4
2021-06-29 12:24:17.697367,1.0150146484375,0.04833984375,-0.0126953125,0.79345703125,-2.9296875,-0.1220703125,4
2021-06-29 12:24:17.757207,1.011474609375,0.0443115234375,-0.013427734375,2.25830078125,-2.44140625,-0.1220703125,4
2021-06-29 12:24:17.819042,1.00634765625,0.04248046875,-0.0093994140625,1.40380859375,-3.173828125,-0.91552734375,4
2021-06-29 12:24:17.882871,1.0062255859375,0.0423583984375,-0.011474609375,-0.3662109375,-3.173828125,-1.220703125,4
2021-06-29 12:24:17.944315,1.003662109375,0.0489501953125,-0.0196533203125,-0.91552734375,-2.74658203125,-1.220703125,4
2021-06-29 12:24:18.021898,1.0037841796875,0.0447998046875,-0.013427734375,0.91552734375,-2.685546875,-1.220703125,4
2021-06-29 12:24:18.084056,1.0069580078125,0.033447265625,-0.01171875,0.8544921875,-3.173828125,-1.953125,4
2021-06-29 12:24:18.145506,1.0125732421875,0.0386962890625,-0.0142822265625,0.6103515625,-2.86865234375,-2.13623046875,4
2021-06-29 12:24:18.208391,1.0037841796875,0.0439453125,-0.01220703125,0.732421875,-3.47900390625,-1.5869140625,4
2021-06-29 12:24:18.271530,0.9967041015625,0.0418701171875,-0.0150146484375,-0.06103515625,-4.33349609375,-0.91552734375,4
2021-06-29 12:24:18.364645,0.9974365234375,0.03955078125,-0.0120849609375,0.732421875,-3.72314453125,-0.8544921875,4
2021-06-29 12:24:18.427126,1.0009765625,0.040283203125,-0.014892578125,1.40380859375,-4.39453125,-0.9765625,4
2021-06-29 12:24:18.489531,1.0072021484375,0.0477294921875,-0.0164794921875,1.5869140625,-4.45556640625,-0.244140625,4
2021-06-29 12:24:18.552578,1.0072021484375,0.046142578125,-0.0133056640625,0.8544921875,-4.33349609375,0.732421875,4
2021-06-29 12:24:18.614315,1.00830078125,0.0443115234375,-0.0169677734375,0.30517578125,-4.33349609375,0.91552734375,4
2021-06-29 12:24:18.677517,1.00732421875,0.0484619140625,-0.013916015625,-0.244140625,-4.21142578125,0.67138671875,4
2021-06-29 12:24:18.740746,1.0069580078125,0.0438232421875,-0.0130615234375,-0.244140625,-4.638671875,0.1220703125,4
2021-06-29 12:24:18.802625,1.005126953125,0.04833984375,-0.0123291015625,-0.42724609375,-4.33349609375,-0.48828125,4
2021-06-29 12:24:18.864417,1.0076904296875,0.0455322265625,-0.0123291015625,0.0,-4.33349609375,-0.8544921875,4
2021-06-29 12:24:18.927265,1.0072021484375,0.05224609375,-0.007568359375,-0.48828125,-4.33349609375,-0.732421875,4
2021-06-29 12:24:18.989571,1.0054931640625,0.0382080078125,-0.0098876953125,0.1220703125,-5.126953125,-1.64794921875,4
2021-06-29 12:24:19.051351,1.0045166015625,0.0355224609375,-0.0089111328125,-0.30517578125,-4.7607421875,-2.38037109375,4
2021-06-29 12:24:19.114018,1.001953125,0.0491943359375,-0.011474609375,-0.8544921875,-5.0048828125,-2.5634765625,4
2021-06-29 12:24:19.175291,1.0042724609375,0.0389404296875,-0.0179443359375,0.54931640625,-5.43212890625,-2.685546875,4
2021-06-29 12:24:19.237312,1.0023193359375,0.0367431640625,-0.0166015625,0.54931640625,-5.43212890625,-2.38037109375,4
2021-06-29 12:24:19.299920,1.0086669921875,0.0460205078125,-0.0361328125,0.9765625,-6.103515625,-2.99072265625,4
2021-06-29 12:24:19.362698,1.010009765625,0.0308837890625,-0.01513671875,1.5869140625,-5.2490234375,-2.50244140625,4
2021-06-29 12:24:19.425215,1.0135498046875,0.0467529296875,-0.02392578125,1.89208984375,-4.08935546875,-0.6103515625,4
2021-06-29 12:24:19.487859,1.010986328125,0.0430908203125,-0.0179443359375,3.84521484375,-3.72314453125,-0.244140625,4
2021-06-29 12:24:19.549440,0.999755859375,0.03662109375,-0.0113525390625,4.8828125,-4.0283203125,0.30517578125,4
2021-06-29 12:24:19.610599,1.005615234375,0.0557861328125,-0.0277099609375,1.77001953125,-3.23486328125,0.67138671875,4
2021-06-29 12:24:19.672320,1.0032958984375,0.06689453125,-0.0257568359375,1.46484375,-2.99072265625,1.46484375,4
2021-06-29 12:24:19.734847,1.002685546875,0.0487060546875,-0.0142822265625,1.8310546875,-4.33349609375,1.953125,4
2021-06-29 12:24:19.796220,1.0096435546875,0.042236328125,-0.0186767578125,0.0,-4.33349609375,0.8544921875,4
2021-06-29 12:24:19.857839,1.012451171875,0.0517578125,-0.017333984375,-0.18310546875,-3.84521484375,0.3662109375,4
2021-06-29 12:24:19.920406,1.00927734375,0.0526123046875,-0.01904296875,0.3662109375,-3.47900390625,0.42724609375,4
2021-06-29 12:24:19.982139,1.003173828125,0.04541015625,-0.014892578125,0.79345703125,-3.23486328125,0.0,4
2021-06-29 12:24:20.044286,1.002685546875,0.047119140625,-0.015380859375,-0.244140625,-3.47900390625,-0.79345703125,4
2021-06-29 12:24:20.106261,1.0006103515625,0.050537109375,-0.0186767578125,-1.28173828125,-4.08935546875,-1.15966796875,4
2021-06-29 12:24:20.169779,1.0009765625,0.04736328125,-0.016357421875,-1.28173828125,-4.82177734375,-1.220703125,4
2021-06-29 12:24:20.233030,1.0023193359375,0.0440673828125,-0.01953125,-2.01416015625,-5.31005859375,-1.5869140625,4
2021-06-29 12:24:20.296102,1.0013427734375,0.0404052734375,-0.0142822265625,-1.220703125,-4.8828125,-1.0986328125,4
2021-06-29 12:24:20.358790,1.0042724609375,0.04345703125,-0.0234375,-1.89208984375,-5.06591796875,-0.30517578125,4
2021-06-29 12:24:20.420252,1.007080078125,0.0457763671875,-0.0291748046875,-2.3193359375,-5.43212890625,0.1220703125,4
2021-06-29 12:24:20.482422,1.0135498046875,0.045166015625,-0.0264892578125,-0.732421875,-4.45556640625,0.91552734375,4
2021-06-29 12:24:20.545426,1.0189208984375,0.04296875,-0.0166015625,1.220703125,-3.662109375,0.6103515625,4
2021-06-29 12:24:20.607086,0.9986572265625,0.031982421875,-0.0164794921875,3.90625,-3.662109375,-1.5869140625,4
2021-06-29 12:24:20.669132,1.00732421875,0.0428466796875,-0.0142822265625,3.662109375,-4.45556640625,-3.11279296875,4
2021-06-29 12:24:20.732192,0.998291015625,0.0494384765625,-0.01806640625,4.57763671875,-4.21142578125,-2.25830078125,4
2021-06-29 12:24:20.794779,1.0003662109375,0.0458984375,-0.02001953125,1.220703125,-4.82177734375,-1.708984375,4
2021-06-29 12:24:20.858056,1.010498046875,0.0491943359375,-0.0145263671875,0.48828125,-5.126953125,-1.708984375,4
2021-06-29 12:24:20.921341,1.011474609375,0.0301513671875,-0.008544921875,3.2958984375,-5.0048828125,-1.52587890625,4
2021-06-29 12:24:20.984155,1.010986328125,0.0303955078125,-0.0126953125,1.708984375,-3.90625,-1.46484375,4
2021-06-29 12:24:21.046868,0.99560546875,0.0479736328125,-0.0157470703125,2.25830078125,-2.44140625,0.1220703125,4
2021-06-29 12:24:21.109418,1.0006103515625,0.0517578125,-0.0250244140625,1.77001953125,-2.0751953125,1.28173828125,4
2021-06-29 12:24:21.172113,0.9962158203125,0.0477294921875,-0.0225830078125,-0.244140625,-3.35693359375,2.25830078125,4
2021-06-29 12:24:21.234499,0.9979248046875,0.0345458984375,-0.0208740234375,-1.0986328125,-2.685546875,2.8076171875,4
2021-06-29 12:24:21.296558,1.0029296875,0.0325927734375,-0.0234375,-3.96728515625,-3.96728515625,1.953125,5
2021-06-29 12:24:21.358624,1.001220703125,0.04150390625,-0.034423828125,-2.0751953125,-0.54931640625,3.41796875,9
2021-06-29 12:24:21.420863,1.010986328125,0.052001953125,-0.0452880859375,-5.126953125,-5.0048828125,2.5634765625,8
2021-06-29 12:24:21.483058,1.012939453125,0.04248046875,-0.0345458984375,-3.5400390625,-5.06591796875,2.99072265625,5
2021-06-29 12:24:21.545353,1.021240234375,0.03564453125,-0.0302734375,-1.40380859375,-3.47900390625,3.0517578125,4
2021-06-29 12:24:21.607322,1.0152587890625,0.040771484375,-0.0264892578125,-2.8076171875,-4.69970703125,1.220703125,4
2021-06-29 12:24:21.670405,1.00537109375,0.039306640625,-0.0206298828125,-1.40380859375,-5.2490234375,-0.06103515625,4
2021-06-29 12:24:21.732597,0.999755859375,0.0335693359375,-0.013427734375,-1.40380859375,-5.615234375,-0.79345703125,4
2021-06-29 12:24:21.795178,1.0029296875,0.0386962890625,-0.020263671875,-2.8076171875,-5.06591796875,-0.67138671875,4
2021-06-29 12:24:21.857490,0.9967041015625,0.040283203125,-0.0162353515625,-2.62451171875,-4.8828125,-0.732421875,4
2021-06-29 12:24:21.920400,1.009765625,0.0240478515625,-0.0137939453125,-2.38037109375,-4.57763671875,-1.15966796875,4
2021-06-29 12:24:21.984253,1.0157470703125,0.0255126953125,-0.0030517578125,-3.35693359375,-4.0283203125,-1.64794921875,4
2021-06-29 12:24:22.047087,1.0081787109375,0.0189208984375,-0.0079345703125,-2.13623046875,-3.47900390625,-1.8310546875,4
2021-06-29 12:24:22.109242,1.01416015625,0.025634765625,-0.01171875,-2.197265625,-3.0517578125,-2.3193359375,4
2021-06-29 12:24:22.171377,1.0203857421875,0.0306396484375,-0.0130615234375,0.42724609375,-2.44140625,-2.25830078125,4
2021-06-29 12:24:22.233757,1.019775390625,0.017822265625,-0.0013427734375,5.615234375,-1.28173828125,-2.9296875,4
2021-06-29 12:24:22.296040,1.029296875,0.0125732421875,0.0009765625,6.7138671875,-2.44140625,-4.21142578125,4
2021-06-29 12:24:22.358465,1.0135498046875,0.0238037109375,0.000244140625,6.4697265625,-5.615234375,-5.126953125,4
2021-06-29 12:24:22.420148,0.9935302734375,0.012939453125,0.012939453125,8.056640625,-4.94384765625,-5.37109375,5
2021-06-29 12:24:22.482194,0.97607421875,0.0264892578125,-0.0030517578125,3.41796875,-3.23486328125,-2.5634765625,5
2021-06-29 12:24:22.543412,0.985107421875,0.045166015625,-0.0186767578125,-3.35693359375,-0.48828125,1.77001953125,5
2021-06-29 12:24:22.605734,0.990234375,0.0589599609375,-0.0394287109375,-7.38525390625,-0.732421875,4.45556640625,5
2021-06-29 12:24:22.668203,0.9964599609375,0.0362548828125,-0.0269775390625,-6.16455078125,1.3427734375,7.26318359375,5
2021-06-29 12:24:22.730039,1.0107421875,0.020263671875,-0.0224609375,-7.080078125,1.3427734375,7.080078125,5
2021-06-29 12:24:22.792246,1.025634765625,0.014892578125,-0.0189208984375,-7.2021484375,-0.30517578125,5.06591796875,5
