arrival_time,acc_x,acc_y,acc_z,rot_x,rot_y,rot_z,ir_dist
2021-06-29 12:16:50.065752,1.006103515625,0.0955810546875,-0.002197265625,-0.732421875,-3.23486328125,0.244140625,106
2021-06-29 12:16:50.128794,1.0067138671875,0.0947265625,-0.001708984375,-0.1220703125,-3.662109375,-0.6103515625,81
2021-06-29 12:16:50.190589,1.0052490234375,0.094482421875,-0.000732421875,0.06103515625,-3.72314453125,-1.220703125,70
2021-06-29 12:16:50.252673,1.01611328125,0.095703125,-0.0009765625,-0.244140625,-3.5400390625,-1.15966796875,45
2021-06-29 12:16:50.314480,1.0281982421875,0.0882568359375,-0.0023193359375,-0.79345703125,-2.197265625,-0.8544921875,64
2021-06-29 12:16:50.377095,1.0146484375,0.1044921875,-0.003173828125,-3.41796875,0.6103515625,0.3662109375,76
2021-06-29 12:16:50.439725,0.99462890625,0.1112060546875,0.0067138671875,-2.9296875,0.0,-0.67138671875,68
2021-06-29 12:16:50.502428,0.988525390625,0.090576171875,0.005615234375,-1.5869140625,-1.03759765625,-1.953125,66
2021-06-29 12:16:50.563784,0.9854736328125,0.100341796875,0.0047607421875,-2.13623046875,-1.77001953125,-4.08935546875,70
2021-06-29 12:16:50.624910,0.992431640625,0.092529296875,-0.00146484375,0.30517578125,-3.173828125,-4.638671875,54
2021-06-29 12:16:50.687670,0.99609375,0.0924072265625,0.0,1.220703125,-4.21142578125,-4.57763671875,55
2021-06-29 12:16:50.750765,1.002685546875,0.091064453125,0.00244140625,2.74658203125,-6.53076171875,-4.0283203125,61
2021-06-29 12:16:50.812982,1.0040283203125,0.084716796875,0.0093994140625,1.8310546875,-8.11767578125,-3.84521484375,66
2021-06-29 12:16:50.875520,0.9990234375,0.087158203125,0.0084228515625,-0.244140625,-8.11767578125,-3.662109375,62
2021-06-29 12:16:50.936553,0.99951171875,0.09521484375,0.012451171875,2.44140625,-8.36181640625,-3.2958984375,79
2021-06-29 12:16:50.999264,1.0009765625,0.0941162109375,0.010009765625,3.35693359375,-7.32421875,-2.86865234375,64
2021-06-29 12:16:51.061659,1.000732421875,0.104248046875,0.014404296875,3.90625,-6.04248046875,-1.708984375,56
2021-06-29 12:16:51.124984,1.003662109375,0.0977783203125,0.0191650390625,5.37109375,-5.615234375,-1.52587890625,62
2021-06-29 12:16:51.188822,1.0062255859375,0.0965576171875,0.01513671875,5.18798828125,-4.33349609375,-0.67138671875,81
2021-06-29 12:16:51.250657,1.006103515625,0.1051025390625,0.0087890625,5.18798828125,-3.47900390625,-0.54931640625,94
2021-06-29 12:16:51.313489,1.00341796875,0.104736328125,0.010986328125,6.40869140625,-3.23486328125,-0.3662109375,81
2021-06-29 12:16:51.376321,1.004150390625,0.1055908203125,0.00537109375,5.55419921875,-2.86865234375,-0.42724609375,93
2021-06-29 12:16:51.439153,1.0025634765625,0.10546875,0.0040283203125,5.92041015625,-2.5634765625,-1.0986328125,94
2021-06-29 12:16:51.501984,1.001708984375,0.1031494140625,0.0037841796875,5.79833984375,-2.25830078125,-1.64794921875,75
2021-06-29 12:16:51.561824,1.0050048828125,0.1072998046875,-0.007568359375,5.79833984375,-2.3193359375,-1.64794921875,64
2021-06-29 12:16:51.623659,0.9991455078125,0.1119384765625,-0.000244140625,6.34765625,-2.44140625,-0.9765625,74
2021-06-29 12:16:51.685494,0.99365234375,0.0980224609375,0.0008544921875,5.06591796875,-3.96728515625,-0.67138671875,55
2021-06-29 12:16:51.749323,0.9962158203125,0.094970703125,-0.01025390625,2.50244140625,-2.50244140625,-0.18310546875,61
2021-06-29 12:16:51.813153,1.001220703125,0.119384765625,-0.0023193359375,0.9765625,-1.708984375,0.91552734375,69
2021-06-29 12:16:51.876404,1.0042724609375,0.0963134765625,0.0009765625,3.0517578125,-2.50244140625,1.89208984375,77
2021-06-29 12:16:51.939237,1.0009765625,0.0914306640625,0.0068359375,0.18310546875,-1.89208984375,2.99072265625,82
2021-06-29 12:16:52.003037,1.0015869140625,0.1075439453125,0.01025390625,-5.4931640625,-1.40380859375,4.2724609375,71
2021-06-29 12:16:52.065893,1.0040283203125,0.1021728515625,0.013916015625,-5.06591796875,-1.0986328125,5.31005859375,76
2021-06-29 12:16:52.129722,1.003173828125,0.1068115234375,0.019287109375,-5.4931640625,-0.244140625,6.591796875,74
2021-06-29 12:16:52.192615,1.0003662109375,0.0999755859375,0.025390625,-7.87353515625,0.3662109375,7.32421875,54
2021-06-29 12:16:52.255419,0.995849609375,0.0906982421875,0.031005859375,-10.3759765625,1.64794921875,8.056640625,70
2021-06-29 12:16:52.319276,0.992431640625,0.09423828125,0.0272216796875,-11.3525390625,2.99072265625,9.33837890625,61
2021-06-29 12:16:52.382228,0.9818115234375,0.0877685546875,0.027099609375,-10.7421875,3.35693359375,10.7421875,53
2021-06-29 12:16:52.443064,0.960693359375,0.0732421875,0.0341796875,-13.97705078125,5.79833984375,12.451171875,44
2021-06-29 12:16:52.504221,0.9417724609375,0.0716552734375,0.03125,-19.287109375,5.37109375,13.73291015625,48
2021-06-29 12:16:52.566122,0.9117431640625,0.0625,0.036376953125,-22.39990234375,4.45556640625,13.85498046875,44
2021-06-29 12:16:52.627860,0.87841796875,0.0469970703125,0.04296875,-26.0009765625,3.11279296875,13.427734375,44
2021-06-29 12:16:52.690006,0.8614501953125,0.0435791015625,0.037353515625,-30.94482421875,2.38037109375,11.41357421875,50
2021-06-29 12:16:52.755124,0.8590087890625,0.045166015625,0.0462646484375,-20.08056640625,0.0,10.986328125,40
2021-06-29 12:16:52.814964,0.870849609375,0.0137939453125,0.0596923828125,-13.5498046875,0.18310546875,9.8876953125,61
2021-06-29 12:16:52.875802,0.8939208984375,-0.0078125,0.0694580078125,-14.22119140625,2.38037109375,10.31494140625,51
2021-06-29 12:16:52.938878,0.8817138671875,-0.0062255859375,0.0906982421875,-17.15087890625,-0.91552734375,7.62939453125,51
2021-06-29 12:16:53.002230,0.8590087890625,-0.0098876953125,0.0826416015625,-14.5263671875,-4.82177734375,6.8359375,52
2021-06-29 12:16:53.063158,0.8408203125,-0.0384521484375,0.082275390625,-14.09912109375,-4.39453125,4.08935546875,55
2021-06-29 12:16:53.125666,0.87255859375,-0.0264892578125,0.06982421875,-18.1884765625,-0.244140625,3.23486328125,51
2021-06-29 12:16:53.188433,0.906005859375,-0.0306396484375,0.0751953125,-17.51708984375,-0.244140625,0.48828125,47
2021-06-29 12:16:53.249626,0.9052734375,-0.0537109375,0.091552734375,-10.43701171875,-4.2724609375,-0.9765625,47
2021-06-29 12:16:53.312487,0.950439453125,-0.07568359375,0.092529296875,-5.2490234375,-2.685546875,-4.2724609375,47
2021-06-29 12:16:53.374402,0.9434814453125,-0.056396484375,0.0806884765625,-4.69970703125,-0.54931640625,-6.28662109375,60
2021-06-29 12:16:53.435719,0.95654296875,-0.0517578125,0.086181640625,-7.9345703125,-1.15966796875,-6.103515625,39
2021-06-29 12:16:53.498208,0.9757080078125,-0.03271484375,0.0853271484375,-10.6201171875,-2.3193359375,-4.08935546875,43
2021-06-29 12:16:53.560302,0.982421875,-0.044677734375,0.0743408203125,-7.38525390625,-3.7841796875,-2.3193359375,29
2021-06-29 12:16:53.623279,0.9375,-0.0721435546875,0.0908203125,-11.77978515625,-4.08935546875,-3.5400390625,31
2021-06-29 12:16:53.686397,0.9676513671875,-0.0550537109375,0.076416015625,-20.99609375,-1.0986328125,-2.62451171875,36
2021-06-29 12:16:53.748413,0.96630859375,-0.0155029296875,0.071044921875,-23.37646484375,-3.173828125,-0.244140625,42
2021-06-29 12:16:53.811043,0.9908447265625,-0.033447265625,0.080322265625,-17.9443359375,-3.41796875,3.72314453125,43
2021-06-29 12:16:53.873764,1.032958984375,-0.044189453125,0.0596923828125,-16.7236328125,-2.25830078125,6.53076171875,48
2021-06-29 12:16:53.935729,1.0474853515625,-0.040771484375,0.0684814453125,-13.0615234375,0.6103515625,7.9345703125,66
2021-06-29 12:16:53.998390,1.0780029296875,-0.059814453125,0.08935546875,-8.72802734375,0.42724609375,8.72802734375,81
2021-06-29 12:16:54.059493,1.101806640625,-0.0811767578125,0.0948486328125,-5.67626953125,-0.18310546875,7.75146484375,97
2021-06-29 12:16:54.120576,1.12646484375,-0.09228515625,0.111572265625,-3.173828125,-1.3427734375,5.18798828125,93
2021-06-29 12:16:54.182502,1.1181640625,-0.10009765625,0.119873046875,-8.7890625,-2.86865234375,0.8544921875,100
2021-06-29 12:16:54.246358,1.1229248046875,-0.1070556640625,0.1156005859375,-9.09423828125,-4.08935546875,-2.01416015625,112
2021-06-29 12:16:54.307592,1.1365966796875,-0.090576171875,0.1102294921875,-8.4228515625,-4.57763671875,-4.21142578125,87
2021-06-29 12:16:54.371000,1.134033203125,-0.081787109375,0.1143798828125,-0.1220703125,-5.43212890625,-4.39453125,63
2021-06-29 12:16:54.433661,1.1048583984375,-0.090087890625,0.1307373046875,-0.9765625,-5.06591796875,-4.33349609375,11
2021-06-29 12:16:54.496030,1.143798828125,-0.07177734375,0.1090087890625,0.42724609375,-1.77001953125,-1.77001953125,5
2021-06-29 12:16:54.558287,1.1728515625,-0.0521240234375,0.082275390625,2.8076171875,3.662109375,1.64794921875,5
2021-06-29 12:16:54.620916,1.16064453125,-0.0960693359375,0.1536865234375,-1.03759765625,0.8544921875,4.2724609375,4
2021-06-29 12:16:54.681881,1.1685791015625,-0.086181640625,0.1357421875,-9.3994140625,1.5869140625,7.62939453125,4
2021-06-29 12:16:54.744181,1.234619140625,-0.0609130859375,0.1287841796875,-24.169921875,2.50244140625,10.009765625,4
2021-06-29 12:16:54.805135,1.288818359375,-0.071533203125,0.1549072265625,-24.71923828125,0.42724609375,10.31494140625,4
2021-06-29 12:16:54.866875,1.3109130859375,-0.0804443359375,0.15771484375,-15.68603515625,-0.67138671875,10.19287109375,4
2021-06-29 12:16:54.929089,1.3214111328125,-0.0831298828125,0.1771240234375,-15.93017578125,2.44140625,6.9580078125,4
2021-06-29 12:16:54.991781,1.3388671875,-0.0810546875,0.173828125,-13.427734375,-0.54931640625,3.41796875,4
2021-06-29 12:16:55.053890,1.345458984375,-0.0712890625,0.1627197265625,1.03759765625,-0.06103515625,-0.18310546875,4
2021-06-29 12:16:55.116298,1.3394775390625,-0.012451171875,0.1373291015625,7.080078125,0.6103515625,-6.04248046875,4
2021-06-29 12:16:55.178775,1.2901611328125,-0.101806640625,0.1873779296875,16.845703125,1.89208984375,-12.39013671875,5
2021-06-29 12:16:55.242297,1.2384033203125,-0.1025390625,0.1915283203125,27.28271484375,0.6103515625,-16.6015625,9
2021-06-29 12:16:55.305270,1.197265625,-0.09619140625,0.2044677734375,20.20263671875,0.18310546875,-17.9443359375,56
2021-06-29 12:16:55.367350,1.1458740234375,-0.0655517578125,0.172607421875,9.3994140625,-1.28173828125,-15.93017578125,83
2021-06-29 12:16:55.429263,1.10302734375,-0.049072265625,0.1514892578125,9.46044921875,-2.0751953125,-14.95361328125,99
2021-06-29 12:16:55.492066,1.037109375,-0.05615234375,0.1485595703125,12.02392578125,-2.3193359375,-15.44189453125,155
2021-06-29 12:16:55.554784,1.002685546875,-0.056884765625,0.1468505859375,12.6953125,-1.03759765625,-16.05224609375,232
2021-06-29 12:16:55.617669,0.9766845703125,-0.032958984375,0.1356201171875,9.33837890625,-0.8544921875,-17.4560546875,172
2021-06-29 12:16:55.679699,0.9649658203125,-0.0308837890625,0.1402587890625,18.6767578125,-4.5166015625,-18.24951171875,163
2021-06-29 12:16:55.742238,0.9228515625,-0.03759765625,0.1363525390625,23.37646484375,-5.79833984375,-20.08056640625,114
2021-06-29 12:16:55.804411,0.884521484375,-0.031005859375,0.1373291015625,25.5126953125,-6.04248046875,-21.3623046875,73
2021-06-29 12:16:55.866363,0.8533935546875,-0.004150390625,0.1304931640625,21.6064453125,-6.77490234375,-21.728515625,53
2021-06-29 12:16:55.929042,0.8310546875,0.0306396484375,0.107666015625,20.751953125,-6.8359375,-18.73779296875,47
2021-06-29 12:16:55.992178,0.8155517578125,0.027587890625,0.1015625,29.23583984375,-8.48388671875,-13.7939453125,47
2021-06-29 12:16:56.053426,0.7596435546875,0.0628662109375,0.130615234375,18.00537109375,-6.2255859375,-7.14111328125,40
2021-06-29 12:16:56.114689,0.7747802734375,0.081298828125,0.09326171875,4.150390625,-4.69970703125,-3.41796875,42
2021-06-29 12:16:56.176369,0.8017578125,0.1082763671875,0.0732421875,8.85009765625,-8.7890625,-1.77001953125,40
2021-06-29 12:16:56.237316,0.82763671875,0.1158447265625,0.085693359375,13.18359375,-7.6904296875,-2.8076171875,40
2021-06-29 12:16:56.299029,0.8623046875,0.1064453125,0.0692138671875,44.37255859375,-6.28662109375,-0.91552734375,85
2021-06-29 12:16:56.361526,0.8927001953125,0.1029052734375,0.070556640625,70.6787109375,-5.9814453125,-2.99072265625,460
2021-06-29 12:16:56.423193,0.867919921875,0.0606689453125,0.1031494140625,65.3076171875,-8.6669921875,-7.99560546875,147
2021-06-29 12:16:56.486542,0.87451171875,0.0848388671875,0.09033203125,52.978515625,-10.1318359375,-7.9345703125,126
2021-06-29 12:16:56.548733,0.894775390625,0.1058349609375,0.059326171875,48.40087890625,-14.7705078125,-8.1787109375,112
2021-06-29 12:16:56.611482,0.897705078125,0.1019287109375,0.0645751953125,43.88427734375,-18.5546875,-8.9111328125,87
2021-06-29 12:16:56.673604,0.93017578125,0.1103515625,0.04345703125,31.3720703125,-16.6015625,-6.4697265625,85
2021-06-29 12:16:56.736126,0.9332275390625,0.1378173828125,0.0362548828125,19.53125,-17.08984375,-3.35693359375,73
2021-06-29 12:16:56.798064,0.9578857421875,0.14892578125,0.04052734375,14.5263671875,-16.11328125,0.244140625,59
2021-06-29 12:16:56.860010,0.9625244140625,0.16015625,0.02880859375,8.7890625,-15.625,4.82177734375,94
2021-06-29 12:16:56.923125,0.97509765625,0.1395263671875,0.0281982421875,8.7890625,-11.65771484375,7.080078125,104
2021-06-29 12:16:56.985033,0.984375,0.1334228515625,0.0277099609375,9.6435546875,-9.46044921875,8.30078125,1074
2021-06-29 12:16:57.046238,0.966796875,0.126220703125,0.0350341796875,4.7607421875,-9.6435546875,5.31005859375,1380
2021-06-29 12:16:57.109500,0.9783935546875,0.12548828125,0.0302734375,9.33837890625,-9.21630859375,2.86865234375,1227
2021-06-29 12:16:57.171665,0.9761962890625,0.131591796875,0.0185546875,10.31494140625,-9.033203125,0.6103515625,1380
2021-06-29 12:16:57.233837,0.973876953125,0.1383056640625,0.0213623046875,15.56396484375,-9.765625,-2.50244140625,1380
2021-06-29 12:16:57.295907,0.963623046875,0.1256103515625,0.0125732421875,22.5830078125,-11.16943359375,-5.37109375,1227
2021-06-29 12:16:57.357935,0.960693359375,0.1378173828125,0.0047607421875,18.73779296875,-8.544921875,-6.53076171875,1074
2021-06-29 12:16:57.421111,0.9677734375,0.15380859375,-0.013427734375,14.95361328125,-7.26318359375,-5.4931640625,1227
2021-06-29 12:16:57.484335,0.98291015625,0.156005859375,-0.02197265625,13.5498046875,-6.04248046875,-3.7841796875,1227
2021-06-29 12:16:57.547017,0.999267578125,0.130126953125,-0.016845703125,9.1552734375,-6.28662109375,-2.9296875,1227
2021-06-29 12:16:57.609888,1.028076171875,0.129150390625,-0.024658203125,4.5166015625,-3.35693359375,-2.13623046875,1227
2021-06-29 12:16:57.671592,1.012451171875,0.1424560546875,-0.0155029296875,-0.48828125,-4.33349609375,-1.03759765625,1227
2021-06-29 12:16:57.733101,0.986083984375,0.126220703125,0.005615234375,-4.638671875,-5.18798828125,-0.67138671875,1227
2021-06-29 12:16:57.796158,0.9925537109375,0.1212158203125,-0.0003662109375,-11.3525390625,-4.8828125,-0.48828125,1227
2021-06-29 12:16:57.858919,1.013916015625,0.12939453125,0.0086669921875,-14.16015625,-3.72314453125,-1.15966796875,1227
2021-06-29 12:16:57.952078,1.0047607421875,0.1480712890625,0.013916015625,-11.3525390625,-3.96728515625,0.6103515625,1074
2021-06-29 12:16:58.014327,1.0010986328125,0.158447265625,-0.0025634765625,-9.8876953125,2.74658203125,3.23486328125,953
