arrival_time,acc_x,acc_y,acc_z,rot_x,rot_y,rot_z,ir_dist
2021-06-16 15:21:18.590080,0.92578125,0.397216796875,-0.115478515625,-1.3427734375,-6.103515625,-1.15966796875,34
2021-06-16 15:21:18.689785,0.93359375,0.3885498046875,-0.11669921875,0.91552734375,-6.2255859375,-2.50244140625,43
2021-06-16 15:21:18.769961,0.9228515625,0.36279296875,-0.134033203125,-0.6103515625,-6.28662109375,-0.54931640625,44
2021-06-16 15:21:18.849964,0.9306640625,0.3985595703125,-0.116943359375,-3.5400390625,-6.28662109375,0.6103515625,40
2021-06-16 15:21:18.930379,0.9481201171875,0.394287109375,-0.1209716796875,0.06103515625,-4.0283203125,-1.953125,33
2021-06-16 15:21:19.041521,0.9180908203125,0.383056640625,-0.1375732421875,-0.9765625,-7.87353515625,-1.5869140625,36
2021-06-16 15:21:19.103972,0.923583984375,0.3802490234375,-0.1204833984375,-0.06103515625,-6.2255859375,-1.15966796875,37
2021-06-16 15:21:19.167133,0.927001953125,0.3780517578125,-0.121337890625,-0.48828125,-5.18798828125,-2.86865234375,37
2021-06-16 15:21:19.228765,0.93505859375,0.3646240234375,-0.134033203125,-2.50244140625,-6.53076171875,0.67138671875,40
2021-06-16 15:21:19.292030,0.920654296875,0.4127197265625,-0.1141357421875,-0.67138671875,-6.591796875,-1.0986328125,34
2021-06-16 15:21:19.355370,0.9337158203125,0.3699951171875,-0.131103515625,0.9765625,-5.9814453125,0.3662109375,33
2021-06-16 15:21:19.417007,0.9169921875,0.374755859375,-0.126708984375,-2.86865234375,-6.591796875,1.03759765625,37
2021-06-16 15:21:19.480350,0.9295654296875,0.39990234375,-0.11865234375,-0.79345703125,-4.57763671875,-0.732421875,35
2021-06-16 15:21:19.541957,0.93798828125,0.3896484375,-0.1336669921875,0.54931640625,-5.2490234375,-1.28173828125,38
2021-06-16 15:21:19.604497,0.923583984375,0.3709716796875,-0.1241455078125,0.18310546875,-6.103515625,0.244140625,39
2021-06-16 15:21:19.668326,0.9307861328125,0.39306640625,-0.129638671875,-1.46484375,-6.4697265625,-0.30517578125,35
2021-06-16 15:21:19.731159,0.92724609375,0.38427734375,-0.1173095703125,0.18310546875,-5.859375,-1.8310546875,34
2021-06-16 15:21:19.791584,0.9368896484375,0.3865966796875,-0.1304931640625,-0.67138671875,-5.126953125,-0.244140625,38
2021-06-16 15:21:19.853756,0.9234619140625,0.3974609375,-0.135009765625,-0.06103515625,-6.16455078125,-0.79345703125,34
2021-06-16 15:21:19.914695,0.9342041015625,0.38232421875,-0.1126708984375,-1.3427734375,-5.31005859375,-1.28173828125,35
2021-06-16 15:21:19.976672,0.9366455078125,0.3895263671875,-0.1343994140625,0.06103515625,-5.615234375,-2.13623046875,36
2021-06-16 15:21:20.039313,0.9188232421875,0.37939453125,-0.1136474609375,-1.15966796875,-6.4697265625,-0.9765625,37
2021-06-16 15:21:20.101570,0.9378662109375,0.39013671875,-0.130126953125,-0.732421875,-6.16455078125,-2.62451171875,38
2021-06-16 15:21:20.163092,0.923095703125,0.3758544921875,-0.1221923828125,-0.1220703125,-7.32421875,-2.44140625,33
2021-06-16 15:21:20.226067,0.924560546875,0.3946533203125,-0.1202392578125,-3.35693359375,-6.34765625,0.0,39
2021-06-16 15:21:20.288912,0.9302978515625,0.408203125,-0.1219482421875,-0.67138671875,-6.591796875,-1.40380859375,41
2021-06-16 15:21:20.350972,0.9268798828125,0.38330078125,-0.120849609375,0.8544921875,-5.4931640625,-0.91552734375,36
2021-06-16 15:21:20.413398,0.922607421875,0.3746337890625,-0.1346435546875,0.18310546875,-5.37109375,-0.8544921875,36
2021-06-16 15:21:20.475565,0.9244384765625,0.3890380859375,-0.1363525390625,-1.46484375,-5.9814453125,0.30517578125,36
2021-06-16 15:21:20.537708,0.9345703125,0.385009765625,-0.135009765625,-0.91552734375,-6.40869140625,-0.6103515625,39
2021-06-16 15:21:20.599045,0.927001953125,0.391357421875,-0.1424560546875,-2.5634765625,-8.23974609375,0.0,36
2021-06-16 15:21:20.661200,0.92578125,0.3927001953125,-0.146728515625,-2.5634765625,-9.765625,-1.0986328125,39
2021-06-16 15:21:20.723629,0.9346923828125,0.3609619140625,-0.16455078125,-3.7841796875,-12.26806640625,0.42724609375,47
2021-06-16 15:21:20.786188,0.9171142578125,0.351806640625,-0.1611328125,-10.986328125,-20.20263671875,0.54931640625,51
2021-06-16 15:21:20.847111,0.92333984375,0.3800048828125,-0.1912841796875,-15.56396484375,-23.74267578125,-1.8310546875,59
2021-06-16 15:21:20.909305,0.9136962890625,0.3834228515625,-0.158935546875,-15.68603515625,-29.96826171875,1.0986328125,61
2021-06-16 15:21:20.971802,0.9300537109375,0.4183349609375,-0.18359375,-19.775390625,-35.400390625,-6.2255859375,62
2021-06-16 15:21:21.033706,0.921142578125,0.38232421875,-0.1890869140625,-14.34326171875,-37.04833984375,0.79345703125,68
2021-06-16 15:21:21.096477,0.96533203125,0.482421875,-0.219970703125,-23.193359375,-34.5458984375,-2.3193359375,65
2021-06-16 15:21:21.158558,0.9224853515625,0.45068359375,-0.224365234375,-8.97216796875,-36.19384765625,-1.5869140625,67
2021-06-16 15:21:21.220762,0.9417724609375,0.446044921875,-0.2572021484375,-9.94873046875,-39.6728515625,-4.7607421875,75
2021-06-16 15:21:21.282603,0.917724609375,0.4871826171875,-0.3287353515625,-18.1884765625,-49.49951171875,-11.29150390625,67
2021-06-16 15:21:21.344141,0.91162109375,0.431396484375,-0.294189453125,1.77001953125,-48.828125,-5.79833984375,52
2021-06-16 15:21:21.405867,0.910888671875,0.448486328125,-0.3656005859375,-9.8876953125,-61.5234375,-18.85986328125,46
2021-06-16 15:21:21.467834,0.8524169921875,0.5079345703125,-0.3538818359375,-4.39453125,-64.88037109375,-18.85986328125,50
2021-06-16 15:21:21.560366,0.833740234375,0.5247802734375,-0.4027099609375,-13.00048828125,-66.40625,-29.35791015625,63
2021-06-16 15:21:21.622299,0.79052734375,0.3702392578125,-0.396240234375,-8.48388671875,-60.546875,-22.52197265625,40
2021-06-16 15:21:21.683978,0.765380859375,0.5029296875,-0.461181640625,-16.78466796875,-54.0771484375,-24.658203125,14
2021-06-16 15:21:21.745987,0.7276611328125,0.435791015625,-0.3973388671875,-10.1318359375,-51.08642578125,-22.5830078125,14
2021-06-16 15:21:21.807023,0.687255859375,0.5037841796875,-0.45458984375,-10.92529296875,-44.37255859375,-21.240234375,14
2021-06-16 15:21:21.868531,0.6873779296875,0.52197265625,-0.428955078125,-9.94873046875,-42.236328125,-22.27783203125,12
2021-06-16 15:21:21.931061,0.6348876953125,0.4888916015625,-0.4921875,-8.056640625,-24.96337890625,-9.8876953125,12
2021-06-16 15:21:21.992879,0.6317138671875,0.4432373046875,-0.506103515625,-11.71875,-15.5029296875,-2.44140625,11
2021-06-16 15:21:22.055561,0.5736083984375,0.63232421875,-0.497802734375,5.18798828125,5.4931640625,-0.79345703125,5
2021-06-16 15:21:22.117528,0.5118408203125,0.1024169921875,-0.576416015625,2.197265625,17.7001953125,6.2255859375,6
2021-06-16 15:21:22.212145,0.8623046875,0.587158203125,-0.4776611328125,5.06591796875,24.71923828125,6.40869140625,8
2021-06-16 15:21:22.274829,0.6673583984375,0.612060546875,-0.5316162109375,-0.30517578125,6.2255859375,4.2724609375,9
2021-06-16 15:21:22.337223,0.6644287109375,0.544189453125,-0.43017578125,-6.4697265625,11.5966796875,6.89697265625,9
2021-06-16 15:21:22.399795,0.696044921875,0.595458984375,-0.4971923828125,4.2724609375,0.54931640625,-2.25830078125,9
2021-06-16 15:21:22.462947,0.7093505859375,0.4981689453125,-0.485107421875,-0.42724609375,6.53076171875,-0.91552734375,9
2021-06-16 15:21:22.525027,0.7205810546875,0.5054931640625,-0.44482421875,4.39453125,7.01904296875,7.50732421875,9
2021-06-16 15:21:22.587272,0.7186279296875,0.552978515625,-0.5357666015625,13.12255859375,6.8359375,1.64794921875,9
2021-06-16 15:21:22.649362,0.659423828125,0.453369140625,-0.434814453125,-2.685546875,-3.0517578125,0.54931640625,9
2021-06-16 15:21:22.712066,0.6954345703125,0.6124267578125,-0.4541015625,8.72802734375,3.96728515625,2.38037109375,9
2021-06-16 15:21:22.774958,0.74609375,0.5643310546875,-0.552001953125,12.63427734375,-5.7373046875,-3.23486328125,9
2021-06-16 15:21:22.837074,0.6910400390625,0.527099609375,-0.43994140625,3.84521484375,1.64794921875,0.0,9
2021-06-16 15:21:22.898814,0.7498779296875,0.5274658203125,-0.4476318359375,11.65771484375,6.4697265625,-2.50244140625,9
2021-06-16 15:21:22.961870,0.732666015625,0.5260009765625,-0.5225830078125,7.9345703125,-12.14599609375,-9.033203125,8
2021-06-16 15:21:23.022729,0.7237548828125,0.4571533203125,-0.4920654296875,9.70458984375,-10.25390625,-2.38037109375,7
2021-06-16 15:21:23.084738,0.7186279296875,0.552001953125,-0.49072265625,10.80322265625,-16.11328125,-3.7841796875,6
2021-06-16 15:21:23.146575,0.7269287109375,0.5035400390625,-0.5032958984375,10.986328125,-11.474609375,-7.75146484375,5
2021-06-16 15:21:23.209749,0.7344970703125,0.5384521484375,-0.4853515625,6.40869140625,-19.6533203125,-7.32421875,5
2021-06-16 15:21:23.271869,0.6866455078125,0.4610595703125,-0.4755859375,5.79833984375,-13.48876953125,-1.52587890625,5
2021-06-16 15:21:23.334096,0.694091796875,0.5263671875,-0.55517578125,-1.953125,-16.41845703125,0.3662109375,7
2021-06-16 15:21:23.395549,0.659912109375,0.5,-0.435791015625,3.41796875,-11.04736328125,-1.3427734375,7
2021-06-16 15:21:23.457964,0.666259765625,0.550537109375,-0.54931640625,0.244140625,-13.0615234375,-4.150390625,6
2021-06-16 15:21:23.519317,0.7052001953125,0.48046875,-0.4759521484375,7.38525390625,-9.1552734375,1.8310546875,8
2021-06-16 15:21:23.582314,0.634033203125,0.4664306640625,-0.422607421875,-4.638671875,-6.103515625,3.11279296875,8
2021-06-16 15:21:23.646066,0.6478271484375,0.4844970703125,-0.41845703125,-1.5869140625,1.8310546875,3.0517578125,35
2021-06-16 15:21:23.707930,0.7353515625,0.5023193359375,-0.5029296875,7.38525390625,7.2021484375,3.60107421875,65
2021-06-16 15:21:23.769250,0.674560546875,0.456298828125,-0.3380126953125,0.6103515625,13.427734375,17.4560546875,61
2021-06-16 15:21:23.831030,0.7222900390625,0.5234375,-0.4794921875,2.38037109375,16.2353515625,6.2255859375,59
2021-06-16 15:21:23.892402,0.7322998046875,0.531005859375,-0.544921875,11.90185546875,12.26806640625,5.06591796875,104
2021-06-16 15:21:23.953642,0.7449951171875,0.4307861328125,-0.3717041015625,13.97705078125,24.84130859375,15.07568359375,81
2021-06-16 15:21:24.015841,0.7919921875,0.5054931640625,-0.459228515625,5.37109375,19.6533203125,-3.96728515625,73
2021-06-16 15:21:24.078774,0.8111572265625,0.405029296875,-0.3568115234375,19.47021484375,33.0810546875,14.83154296875,47
2021-06-16 15:21:24.139857,0.8057861328125,0.4549560546875,-0.49755859375,-4.45556640625,26.55029296875,9.033203125,34
2021-06-16 15:21:24.201085,0.7823486328125,0.4810791015625,-0.3165283203125,3.60107421875,27.40478515625,7.2021484375,32
2021-06-16 15:21:24.262639,0.84716796875,0.42236328125,-0.4315185546875,21.30126953125,32.2265625,10.6201171875,31
2021-06-16 15:21:24.325108,0.8017578125,0.3905029296875,-0.3529052734375,11.65771484375,25.93994140625,9.6435546875,37
2021-06-16 15:21:24.387173,0.8480224609375,0.3865966796875,-0.390869140625,11.8408203125,28.3203125,12.5732421875,42
2021-06-16 15:21:24.449736,0.8599853515625,0.4156494140625,-0.340576171875,4.08935546875,23.3154296875,6.77490234375,40
2021-06-16 15:21:24.512261,0.87646484375,0.3927001953125,-0.292236328125,10.8642578125,33.0810546875,17.333984375,43
2021-06-16 15:21:24.573670,0.9329833984375,0.41259765625,-0.3724365234375,6.77490234375,31.31103515625,14.95361328125,55
2021-06-16 15:21:24.635392,0.88623046875,0.408447265625,-0.2630615234375,5.4931640625,24.169921875,17.333984375,59
2021-06-16 15:21:24.697656,0.9329833984375,0.357666015625,-0.30322265625,18.73779296875,27.587890625,12.451171875,72
2021-06-16 15:21:24.759813,0.9222412109375,0.401123046875,-0.2901611328125,9.6435546875,20.6298828125,6.9580078125,68
2021-06-16 15:21:24.822491,0.93798828125,0.3037109375,-0.2525634765625,13.24462890625,15.56396484375,4.7607421875,55
2021-06-16 15:21:24.885076,0.93701171875,0.3529052734375,-0.2755126953125,5.18798828125,10.3759765625,1.52587890625,42
2021-06-16 15:21:24.978904,0.939208984375,0.329345703125,-0.230224609375,7.6904296875,7.2021484375,2.62451171875,45
2021-06-16 15:21:25.041585,0.95654296875,0.3018798828125,-0.248779296875,7.75146484375,2.38037109375,1.8310546875,43
2021-06-16 15:21:25.104187,0.9417724609375,0.30322265625,-0.2288818359375,2.685546875,-6.04248046875,1.28173828125,43
2021-06-16 15:21:25.166134,0.9384765625,0.31298828125,-0.2581787109375,-2.9296875,-7.2021484375,2.99072265625,43
2021-06-16 15:21:25.228379,0.9365234375,0.3170166015625,-0.2064208984375,-5.126953125,-8.85009765625,0.48828125,44
2021-06-16 15:21:25.290143,0.9447021484375,0.321533203125,-0.2318115234375,-7.2021484375,-10.6201171875,0.42724609375,43
2021-06-16 15:21:25.352887,0.940673828125,0.3238525390625,-0.21142578125,-9.94873046875,-14.2822265625,-1.28173828125,41
2021-06-16 15:21:25.414401,0.9400634765625,0.324951171875,-0.2447509765625,-12.63427734375,-17.333984375,-2.86865234375,40
2021-06-16 15:21:25.476481,0.9478759765625,0.34521484375,-0.24609375,-15.380859375,-20.8740234375,-5.43212890625,45
2021-06-16 15:21:25.539250,0.9527587890625,0.3404541015625,-0.251220703125,-15.07568359375,-25.08544921875,-5.615234375,44
2021-06-16 15:21:25.600977,0.934814453125,0.3533935546875,-0.30810546875,-19.287109375,-29.47998046875,-7.87353515625,43
2021-06-16 15:21:25.663924,0.9349365234375,0.383056640625,-0.281494140625,-17.39501953125,-31.494140625,-11.5966796875,50
2021-06-16 15:21:25.726592,0.90869140625,0.3880615234375,-0.2733154296875,-14.6484375,-36.2548828125,-14.95361328125,63
2021-06-16 15:21:25.788825,0.9107666015625,0.4122314453125,-0.3211669921875,-13.5498046875,-35.5224609375,-15.2587890625,65
2021-06-16 15:21:25.850841,0.8931884765625,0.3951416015625,-0.3260498046875,-5.7373046875,-36.2548828125,-12.8173828125,69
2021-06-16 15:21:25.913192,0.905029296875,0.4178466796875,-0.3448486328125,-7.75146484375,-38.4521484375,-12.87841796875,50
2021-06-16 15:21:25.975265,0.8841552734375,0.4512939453125,-0.3662109375,-10.68115234375,-41.50390625,-20.01953125,46
2021-06-16 15:21:26.038004,0.8695068359375,0.402099609375,-0.401611328125,-9.82666015625,-40.58837890625,-14.2822265625,31
2021-06-16 15:21:26.100594,0.837158203125,0.4090576171875,-0.356201171875,-12.6953125,-41.6259765625,-15.0146484375,8
2021-06-16 15:21:26.163444,0.7923583984375,0.443115234375,-0.4510498046875,-22.5830078125,-45.59326171875,-17.15087890625,10
2021-06-16 15:21:26.225389,0.7861328125,0.484375,-0.4071044921875,-26.2451171875,-37.90283203125,-15.13671875,18
2021-06-16 15:21:26.287331,0.7691650390625,0.446044921875,-0.36328125,-10.25390625,-31.6162109375,-16.845703125,17
2021-06-16 15:21:26.349560,0.750732421875,0.423095703125,-0.4210205078125,-5.126953125,-26.123046875,-10.07080078125,11
2021-06-16 15:21:26.412045,0.7296142578125,0.48828125,-0.36328125,-15.80810546875,-23.25439453125,-10.009765625,8
2021-06-16 15:21:26.473783,0.6998291015625,0.4713134765625,-0.4007568359375,-7.62939453125,-11.16943359375,-6.28662109375,4
2021-06-16 15:21:26.534100,0.7178955078125,0.5069580078125,-0.400634765625,-7.6904296875,-7.568359375,-4.08935546875,4
