arrival_time,acc_x,acc_y,acc_z,rot_x,rot_y,rot_z,ir_dist
2021-06-17 12:08:24.381118,0.74462890625,0.6785888671875,0.1671142578125,-2.5634765625,-5.18798828125,-1.89208984375,83
2021-06-17 12:08:24.442676,0.7471923828125,0.6737060546875,0.168212890625,0.54931640625,-6.16455078125,-2.685546875,74
2021-06-17 12:08:24.504822,0.739501953125,0.6746826171875,0.1656494140625,0.6103515625,-5.126953125,-4.39453125,78
2021-06-17 12:08:24.598834,0.7420654296875,0.6771240234375,0.1649169921875,0.8544921875,-5.55419921875,-4.82177734375,90
2021-06-17 12:08:24.660777,0.7442626953125,0.6717529296875,0.1693115234375,0.244140625,-5.31005859375,-4.5166015625,78
2021-06-17 12:08:24.722580,0.7376708984375,0.670654296875,0.1680908203125,-1.708984375,-4.94384765625,-2.13623046875,78
2021-06-17 12:08:24.783971,0.7374267578125,0.675048828125,0.161376953125,-0.6103515625,-5.06591796875,-0.8544921875,76
2021-06-17 12:08:24.846353,0.73583984375,0.67529296875,0.1741943359375,0.732421875,-5.67626953125,-1.40380859375,82
2021-06-17 12:08:24.908164,0.7445068359375,0.67626953125,0.16943359375,-1.46484375,-4.94384765625,-1.28173828125,81
2021-06-17 12:08:24.970432,0.735595703125,0.67578125,0.16162109375,-1.28173828125,-4.33349609375,0.48828125,79
2021-06-17 12:08:25.032622,0.7459716796875,0.6693115234375,0.1641845703125,-1.220703125,-4.82177734375,-0.48828125,85
2021-06-17 12:08:25.095107,0.7476806640625,0.6624755859375,0.156982421875,-4.2724609375,-4.5166015625,15.380859375,81
2021-06-17 12:08:25.157830,0.74560546875,0.6624755859375,0.177490234375,-8.1787109375,-2.44140625,3.0517578125,83
2021-06-17 12:08:25.220109,0.7265625,0.659423828125,0.2044677734375,-13.24462890625,-1.03759765625,5.37109375,87
2021-06-17 12:08:25.282196,0.7227783203125,0.6885986328125,0.200439453125,-6.77490234375,2.685546875,4.94384765625,75
2021-06-17 12:08:25.344133,0.750244140625,0.669189453125,0.1966552734375,-2.01416015625,-1.220703125,-0.06103515625,73
2021-06-17 12:08:25.407288,0.7486572265625,0.6484375,0.1934814453125,0.91552734375,-2.0751953125,2.74658203125,83
2021-06-17 12:08:25.468962,0.7620849609375,0.626220703125,0.195068359375,-5.7373046875,2.0751953125,4.21142578125,83
2021-06-17 12:08:25.531039,0.722412109375,0.6895751953125,0.22802734375,-9.58251953125,2.62451171875,5.37109375,96
2021-06-17 12:08:25.593178,0.7374267578125,0.6995849609375,0.2078857421875,-0.3662109375,-1.89208984375,0.48828125,91
2021-06-17 12:08:25.655081,0.766357421875,0.6488037109375,0.2008056640625,6.4697265625,-3.23486328125,-1.64794921875,110
2021-06-17 12:08:25.716787,0.741943359375,0.6556396484375,0.1973876953125,-1.89208984375,-7.9345703125,-2.01416015625,97
2021-06-17 12:08:25.779382,0.7686767578125,0.628173828125,0.1962890625,-2.01416015625,-6.591796875,0.30517578125,99
2021-06-17 12:08:25.841515,0.7490234375,0.6463623046875,0.20654296875,0.06103515625,-5.79833984375,0.9765625,91
2021-06-17 12:08:25.935661,0.7474365234375,0.641357421875,0.1993408203125,-0.18310546875,-4.33349609375,2.01416015625,93
2021-06-17 12:08:25.998753,0.7545166015625,0.6409912109375,0.202392578125,-1.15966796875,-1.953125,0.8544921875,84
2021-06-17 12:08:26.061851,0.76025390625,0.6358642578125,0.20703125,-0.91552734375,-2.13623046875,-0.54931640625,84
2021-06-17 12:08:26.122801,0.7767333984375,0.639892578125,0.225341796875,5.06591796875,0.3662109375,-6.04248046875,114
2021-06-17 12:08:26.184885,0.7864990234375,0.698486328125,0.24365234375,12.39013671875,4.33349609375,-15.80810546875,124
2021-06-17 12:08:26.247022,0.7513427734375,0.700927734375,0.2216796875,16.29638671875,2.3193359375,-20.81298828125,100
2021-06-17 12:08:26.308347,0.743408203125,0.665283203125,0.15673828125,10.009765625,-3.23486328125,-32.40966796875,88
2021-06-17 12:08:26.370534,0.7003173828125,0.6785888671875,0.15673828125,9.1552734375,-8.1787109375,-42.54150390625,82
2021-06-17 12:08:26.432967,0.7025146484375,0.6689453125,0.103515625,1.0986328125,-16.2353515625,-44.25048828125,58
2021-06-17 12:08:26.495108,0.664794921875,0.658203125,0.1605224609375,-0.1220703125,-23.0712890625,-39.48974609375,65
2021-06-17 12:08:26.557107,0.5859375,0.6751708984375,0.164306640625,-2.197265625,-29.296875,-35.888671875,74
2021-06-17 12:08:26.619302,0.5166015625,0.780517578125,0.1483154296875,-14.892578125,-33.02001953125,-43.212890625,163
2021-06-17 12:08:26.681892,0.5582275390625,0.83984375,0.2369384765625,-3.0517578125,-26.2451171875,-48.40087890625,181
2021-06-17 12:08:26.743627,0.537109375,0.890869140625,0.152099609375,8.97216796875,-29.6630859375,-35.82763671875,116
2021-06-17 12:08:26.805906,0.53564453125,0.858642578125,0.1112060546875,9.33837890625,-31.06689453125,-26.06201171875,108
2021-06-17 12:08:26.867972,0.5491943359375,0.7874755859375,0.09619140625,15.68603515625,-25.390625,-25.20751953125,121
2021-06-17 12:08:26.930596,0.5020751953125,0.8731689453125,0.0938720703125,18.24951171875,-20.3857421875,-26.85546875,121
2021-06-17 12:08:26.993551,0.474365234375,0.9075927734375,0.057373046875,5.859375,-23.62060546875,-20.56884765625,94
2021-06-17 12:08:27.056238,0.451171875,0.9197998046875,0.0679931640625,6.34765625,-17.39501953125,-14.22119140625,70
2021-06-17 12:08:27.149749,0.421630859375,0.921142578125,-0.0009765625,18.798828125,-28.6865234375,-17.9443359375,57
2021-06-17 12:08:27.211859,0.3824462890625,0.9844970703125,-0.026611328125,23.86474609375,-29.9072265625,-18.73779296875,64
2021-06-17 12:08:27.273830,0.3753662109375,0.9927978515625,-0.103759765625,16.7236328125,-38.63525390625,-18.00537109375,66
2021-06-17 12:08:27.336088,0.3638916015625,0.987060546875,-0.0869140625,9.8876953125,-39.9169921875,-19.8974609375,73
2021-06-17 12:08:27.398646,0.347412109375,1.022705078125,-0.0802001953125,1.708984375,-43.64013671875,-23.37646484375,74
2021-06-17 12:08:27.461103,0.2862548828125,1.0191650390625,-0.098388671875,1.64794921875,-46.875,-17.27294921875,70
2021-06-17 12:08:27.524052,0.235107421875,1.019287109375,-0.08837890625,6.4697265625,-38.63525390625,-13.18359375,64
2021-06-17 12:08:27.586974,0.198974609375,1.025390625,-0.0904541015625,5.37109375,-34.7900390625,-9.09423828125,62
2021-06-17 12:08:27.648823,0.16943359375,0.991455078125,-0.128662109375,9.27734375,-32.1044921875,-1.0986328125,66
2021-06-17 12:08:27.710921,0.1556396484375,0.9901123046875,-0.1473388671875,11.474609375,-30.33447265625,3.0517578125,73
2021-06-17 12:08:27.773788,0.1322021484375,0.9180908203125,-0.11376953125,22.4609375,-23.92578125,5.31005859375,69
2021-06-17 12:08:27.835568,0.10546875,0.9010009765625,-0.1868896484375,17.02880859375,-26.3671875,9.21630859375,84
2021-06-17 12:08:27.897492,0.0506591796875,0.8721923828125,-0.2425537109375,20.08056640625,-40.10009765625,10.3759765625,114
2021-06-17 12:08:27.960031,0.0057373046875,0.7291259765625,-0.2330322265625,32.958984375,-37.65869140625,15.07568359375,56
2021-06-17 12:08:28.023167,0.0654296875,0.6263427734375,-0.304443359375,31.06689453125,-43.02978515625,10.8642578125,43
2021-06-17 12:08:28.084598,0.0240478515625,0.5303955078125,-0.2880859375,39.61181640625,-54.0771484375,4.45556640625,45
2021-06-17 12:08:28.147281,0.171630859375,0.5096435546875,-0.268798828125,41.015625,-53.52783203125,1.5869140625,42
2021-06-17 12:08:28.209482,1.0013427734375,0.806884765625,-0.3377685546875,22.88818359375,-65.3076171875,-20.44677734375,48
2021-06-17 12:08:28.272189,0.6895751953125,0.946533203125,-0.2935791015625,63.96484375,-28.99169921875,-3.35693359375,44
2021-06-17 12:08:28.333921,0.9757080078125,0.846923828125,-0.124755859375,47.7294921875,-1.220703125,26.18408203125,51
2021-06-17 12:08:28.396785,0.9327392578125,0.8074951171875,-0.294189453125,70.00732421875,16.2353515625,8.1787109375,53
2021-06-17 12:08:28.458951,0.75634765625,0.7294921875,-0.3480224609375,35.888671875,-12.451171875,18.73779296875,59
2021-06-17 12:08:28.520549,0.6856689453125,0.63623046875,-0.2686767578125,-0.06103515625,22.27783203125,34.7900390625,64
2021-06-17 12:08:28.582406,0.7271728515625,0.753173828125,-0.378662109375,10.986328125,16.4794921875,1.708984375,47
2021-06-17 12:08:28.645470,0.6185302734375,0.7396240234375,-0.4678955078125,21.8505859375,16.66259765625,3.5400390625,47
2021-06-17 12:08:28.707745,0.7501220703125,0.674072265625,-0.4029541015625,32.71484375,30.029296875,3.11279296875,61
2021-06-17 12:08:28.769929,0.730224609375,0.6622314453125,-0.4512939453125,35.82763671875,32.71484375,7.01904296875,106
2021-06-17 12:08:28.832693,0.681884765625,0.5927734375,-0.4595947265625,18.73779296875,28.80859375,16.78466796875,108
2021-06-17 12:08:28.894763,0.6558837890625,0.6710205078125,-0.47265625,9.46044921875,22.8271484375,14.22119140625,102
2021-06-17 12:08:28.957494,0.67431640625,0.71044921875,-0.4810791015625,2.9296875,19.10400390625,13.427734375,99
2021-06-17 12:08:29.019506,0.6458740234375,0.692138671875,-0.4912109375,1.953125,12.939453125,13.61083984375,116
2021-06-17 12:08:29.081526,0.599853515625,0.6669921875,-0.4813232421875,-7.62939453125,0.91552734375,10.009765625,97
2021-06-17 12:08:29.143656,0.6744384765625,0.624267578125,-0.5023193359375,-9.21630859375,-7.8125,10.986328125,93
2021-06-17 12:08:29.205922,0.647216796875,0.6041259765625,-0.388916015625,-17.4560546875,-10.68115234375,13.671875,97
2021-06-17 12:08:29.267492,0.6785888671875,0.6728515625,-0.3829345703125,-27.4658203125,-13.3056640625,10.986328125,97
2021-06-17 12:08:29.329437,0.700927734375,0.686279296875,-0.364990234375,-22.15576171875,-17.02880859375,9.1552734375,91
2021-06-17 12:08:29.391614,0.625,0.6192626953125,-0.3216552734375,-17.333984375,-6.4697265625,17.333984375,88
2021-06-17 12:08:29.453778,0.688720703125,0.6617431640625,-0.3680419921875,-9.94873046875,-8.9111328125,10.986328125,85
2021-06-17 12:08:29.515599,0.63916015625,0.66552734375,-0.376708984375,-2.685546875,-8.056640625,10.55908203125,93
2021-06-17 12:08:29.578229,0.56396484375,0.6383056640625,-0.36328125,-5.0048828125,-3.72314453125,14.22119140625,99
2021-06-17 12:08:29.640514,0.63671875,0.623779296875,-0.3699951171875,-0.67138671875,-6.89697265625,10.3759765625,87
2021-06-17 12:08:29.702741,0.7685546875,0.658935546875,-0.3819580078125,-3.23486328125,-12.6953125,8.4228515625,81
2021-06-17 12:08:29.765013,0.762451171875,0.693359375,-0.3990478515625,-4.638671875,-10.55908203125,10.31494140625,84
2021-06-17 12:08:29.827373,0.72216796875,0.7564697265625,-0.35009765625,-7.87353515625,-11.65771484375,11.71875,79
2021-06-17 12:08:29.889514,0.7249755859375,0.7520751953125,-0.363037109375,5.0048828125,-2.86865234375,5.06591796875,87
2021-06-17 12:08:29.952018,0.7308349609375,0.7904052734375,-0.383544921875,9.8876953125,2.99072265625,1.0986328125,90
2021-06-17 12:08:30.014946,0.814453125,0.7725830078125,-0.409912109375,5.7373046875,5.7373046875,-1.220703125,84
2021-06-17 12:08:30.076772,0.776123046875,0.7220458984375,-0.450927734375,6.34765625,7.8125,-3.41796875,88
2021-06-17 12:08:30.139130,0.85595703125,0.70703125,-0.4417724609375,12.51220703125,7.75146484375,-1.3427734375,82
2021-06-17 12:08:30.201045,0.7388916015625,0.6649169921875,-0.3883056640625,-2.62451171875,3.60107421875,2.197265625,99
2021-06-17 12:08:30.263842,0.7938232421875,0.7158203125,-0.4073486328125,-7.6904296875,0.9765625,0.54931640625,97
2021-06-17 12:08:30.325747,0.7861328125,0.71484375,-0.4376220703125,-3.47900390625,3.72314453125,3.0517578125,84
2021-06-17 12:08:30.387549,0.695556640625,0.702392578125,-0.4476318359375,-1.15966796875,5.55419921875,2.685546875,94
2021-06-17 12:08:30.450526,0.669921875,0.62158203125,-0.36865234375,-2.74658203125,-1.46484375,0.3662109375,99
2021-06-17 12:08:30.512787,0.7232666015625,0.6558837890625,-0.4010009765625,-4.08935546875,-6.65283203125,-5.31005859375,99
2021-06-17 12:08:30.574686,0.716796875,0.6400146484375,-0.3580322265625,-2.9296875,-11.41357421875,-2.25830078125,97
2021-06-17 12:08:30.636409,0.7193603515625,0.645263671875,-0.33349609375,-0.6103515625,-10.92529296875,3.11279296875,96
2021-06-17 12:08:30.698844,0.752685546875,0.66455078125,-0.3768310546875,6.4697265625,-12.87841796875,-0.30517578125,94
2021-06-17 12:08:30.762188,0.807861328125,0.71826171875,-0.3861083984375,8.97216796875,-8.6669921875,-2.0751953125,100
2021-06-17 12:08:30.824813,0.8104248046875,0.674560546875,-0.4102783203125,9.33837890625,-4.21142578125,0.732421875,84
2021-06-17 12:08:30.886726,0.8460693359375,0.6798095703125,-0.39404296875,2.13623046875,-6.04248046875,-2.8076171875,94
2021-06-17 12:08:30.949509,0.9268798828125,0.77587890625,-0.412109375,-4.8828125,-5.9814453125,-8.7890625,96
2021-06-17 12:08:31.011905,0.9093017578125,0.7818603515625,-0.4150390625,0.244140625,-3.96728515625,-10.55908203125,88
2021-06-17 12:08:31.074275,0.7882080078125,0.7435302734375,-0.419677734375,2.50244140625,-0.30517578125,-14.2822265625,91
2021-06-17 12:08:31.152066,0.844970703125,0.6981201171875,-0.41845703125,2.62451171875,-4.638671875,-18.49365234375,96
2021-06-17 12:08:31.213871,0.877685546875,0.7496337890625,-0.417236328125,-2.50244140625,-10.92529296875,-22.39990234375,99
2021-06-17 12:08:31.276420,0.8309326171875,0.7568359375,-0.3885498046875,-9.82666015625,-8.23974609375,-22.3388671875,94
2021-06-17 12:08:31.338977,0.785400390625,0.7332763671875,-0.33544921875,-10.25390625,-4.45556640625,-28.86962890625,87
2021-06-17 12:08:31.401561,0.72900390625,0.67236328125,-0.2840576171875,-10.31494140625,5.9814453125,-32.470703125,94
2021-06-17 12:08:31.463781,0.7587890625,0.700927734375,-0.277099609375,-13.97705078125,16.357421875,-33.0810546875,84
2021-06-17 12:08:31.526800,0.78271484375,0.6898193359375,-0.2349853515625,-25.81787109375,25.0244140625,-33.447265625,83
2021-06-17 12:08:31.588802,0.792236328125,0.61572265625,-0.2034912109375,-13.48876953125,48.88916015625,-18.1884765625,94
2021-06-17 12:08:31.650847,0.7935791015625,0.6143798828125,-0.13623046875,-8.23974609375,52.734375,-21.97265625,94
2021-06-17 12:08:31.712745,0.6639404296875,0.6236572265625,-0.1029052734375,-24.59716796875,28.99169921875,-15.7470703125,99
2021-06-17 12:08:31.774856,0.70751953125,0.6710205078125,-0.09716796875,-18.24951171875,37.841796875,-15.869140625,88
2021-06-17 12:08:31.837852,0.7652587890625,0.7515869140625,-0.0540771484375,-18.6767578125,38.75732421875,-14.5263671875,99
2021-06-17 12:08:31.899859,0.8607177734375,0.8607177734375,0.0966796875,-7.8125,42.41943359375,-33.02001953125,96
2021-06-17 12:08:31.962168,0.9752197265625,0.8746337890625,0.078369140625,-18.37158203125,16.29638671875,-51.33056640625,55
2021-06-17 12:08:32.024557,0.8883056640625,0.8619384765625,0.2376708984375,-6.28662109375,7.75146484375,-35.7666015625,47
2021-06-17 12:08:32.117936,0.29052734375,0.6158447265625,-0.064697265625,11.23046875,-16.78466796875,-12.63427734375,64
2021-06-17 12:08:32.180289,-0.026123046875,0.6171875,-0.078125,5.0048828125,34.60693359375,-1.5869140625,57
2021-06-17 12:08:32.242969,0.043701171875,0.6839599609375,-0.19775390625,4.57763671875,20.32470703125,-17.08984375,50
2021-06-17 12:08:32.305033,0.382568359375,0.8629150390625,-0.3929443359375,-9.521484375,-12.75634765625,-23.3154296875,43
