arrival_time,acc_x,acc_y,acc_z,rot_x,rot_y,rot_z,ir_dist
2021-06-16 15:36:56.345783,0.5802001953125,0.552734375,-0.5487060546875,-1.28173828125,-4.69970703125,-1.64794921875,119
2021-06-16 15:36:56.408215,0.58544921875,0.5570068359375,-0.5340576171875,-2.5634765625,-4.0283203125,-1.28173828125,88
2021-06-16 15:36:56.470273,0.605224609375,0.5665283203125,-0.55419921875,-3.173828125,-4.08935546875,-0.48828125,110
2021-06-16 15:36:56.531230,0.5894775390625,0.55615234375,-0.5404052734375,0.8544921875,-5.06591796875,-0.54931640625,108
2021-06-16 15:36:56.593842,0.5804443359375,0.5357666015625,-0.544921875,-0.8544921875,-4.45556640625,1.52587890625,102
2021-06-16 15:36:56.656076,0.61328125,0.5758056640625,-0.559814453125,-1.64794921875,-5.126953125,-0.6103515625,116
2021-06-16 15:36:56.718296,0.5880126953125,0.557861328125,-0.5455322265625,-0.42724609375,-6.103515625,1.220703125,106
2021-06-16 15:36:56.780693,0.62109375,0.5594482421875,-0.5445556640625,0.06103515625,-6.103515625,0.48828125,114
2021-06-16 15:36:56.842788,0.5889892578125,0.57177734375,-0.5516357421875,-0.1220703125,-6.28662109375,-0.42724609375,88
2021-06-16 15:36:56.904751,0.59033203125,0.571533203125,-0.5394287109375,0.18310546875,-6.591796875,0.48828125,102
2021-06-16 15:36:56.966646,0.60693359375,0.5858154296875,-0.558837890625,-0.79345703125,-7.080078125,-0.732421875,250
2021-06-16 15:36:57.028543,0.5849609375,0.5711669921875,-0.5509033203125,1.5869140625,-7.6904296875,-1.28173828125,163
2021-06-16 15:36:57.091344,0.5833740234375,0.5672607421875,-0.5509033203125,-0.42724609375,-6.53076171875,-1.0986328125,163
2021-06-16 15:36:57.153154,0.585205078125,0.5809326171875,-0.556640625,0.48828125,-7.62939453125,-2.86865234375,121
2021-06-16 15:36:57.215165,0.576171875,0.5731201171875,-0.55712890625,1.46484375,-7.75146484375,-1.708984375,104
2021-06-16 15:36:57.277087,0.585205078125,0.5889892578125,-0.565673828125,-2.8076171875,-7.2021484375,-2.38037109375,82
2021-06-16 15:36:57.369745,0.5751953125,0.5579833984375,-0.545654296875,2.86865234375,-6.65283203125,-2.44140625,114
2021-06-16 15:36:57.431814,0.5638427734375,0.5450439453125,-0.5469970703125,0.244140625,-6.34765625,-1.8310546875,116
2021-06-16 15:36:57.494968,0.5899658203125,0.586181640625,-0.5550537109375,-0.42724609375,-6.7138671875,-2.38037109375,88
2021-06-16 15:36:57.557036,0.5567626953125,0.54541015625,-0.5445556640625,2.44140625,-6.28662109375,-0.91552734375,102
2021-06-16 15:36:57.619144,0.572998046875,0.5745849609375,-0.554443359375,-1.3427734375,-5.7373046875,-1.89208984375,119
2021-06-16 15:36:57.681378,0.602294921875,0.597412109375,-0.572265625,1.8310546875,-6.9580078125,-2.197265625,96
2021-06-16 15:36:57.743450,0.553955078125,0.53662109375,-0.551513671875,7.14111328125,-8.4228515625,-0.732421875,124
2021-06-16 15:36:57.805796,0.5982666015625,0.5877685546875,-0.5655517578125,4.57763671875,-10.31494140625,-4.21142578125,88
2021-06-16 15:36:57.867193,0.5968017578125,0.60888671875,-0.6031494140625,12.14599609375,-15.9912109375,-5.7373046875,93
2021-06-16 15:36:57.930663,0.5284423828125,0.60009765625,-0.6123046875,10.986328125,-20.44677734375,-4.94384765625,108
2021-06-16 15:36:57.992302,0.56298828125,0.6778564453125,-0.68115234375,13.671875,-26.7333984375,-14.7705078125,66
2021-06-16 15:36:58.055711,0.50439453125,0.643798828125,-0.697998046875,19.34814453125,-34.1796875,-17.39501953125,100
2021-06-16 15:36:58.117976,0.4610595703125,0.681640625,-0.7344970703125,19.775390625,-42.05322265625,-23.86474609375,112
2021-06-16 15:36:58.178484,0.434326171875,0.6937255859375,-0.772216796875,21.728515625,-49.6826171875,-37.17041015625,75
2021-06-16 15:36:58.240407,0.4217529296875,0.645263671875,-0.7716064453125,20.99609375,-55.72509765625,-40.4052734375,81
2021-06-16 15:36:58.302370,0.343994140625,0.6312255859375,-0.7989501953125,21.42333984375,-62.19482421875,-45.7763671875,82
2021-06-16 15:36:58.365203,0.322021484375,0.6439208984375,-0.8070068359375,24.47509765625,-70.86181640625,-55.48095703125,85
2021-06-16 15:36:58.426554,0.2564697265625,0.608642578125,-0.80908203125,28.25927734375,-75.62255859375,-56.09130859375,79
2021-06-16 15:36:58.487517,0.223388671875,0.60693359375,-0.81591796875,26.7333984375,-79.345703125,-58.53271484375,78
2021-06-16 15:36:58.550192,0.1168212890625,0.597412109375,-0.8167724609375,22.03369140625,-82.51953125,-61.95068359375,75
2021-06-16 15:36:58.613647,0.057861328125,0.6015625,-0.8349609375,16.6015625,-83.67919921875,-59.14306640625,96
2021-06-16 15:36:58.675386,0.023681640625,0.61865234375,-0.882080078125,13.671875,-85.9375,-66.58935546875,77
2021-06-16 15:36:58.737075,-0.08935546875,0.5665283203125,-0.8040771484375,15.44189453125,-86.181640625,-69.4580078125,84
2021-06-16 15:36:58.799414,-0.1087646484375,0.5894775390625,-0.8758544921875,14.58740234375,-86.181640625,-71.533203125,78
2021-06-16 15:36:58.862373,-0.16259765625,0.5478515625,-0.806396484375,12.26806640625,-89.29443359375,-78.2470703125,76
2021-06-16 15:36:58.924315,-0.30419921875,0.4588623046875,-0.7530517578125,9.94873046875,-86.9140625,-81.4208984375,155
2021-06-16 15:36:58.987108,-0.3572998046875,0.4671630859375,-0.7562255859375,0.79345703125,-80.078125,-82.03125,47
2021-06-16 15:36:59.048631,-0.3231201171875,0.46875,-0.7535400390625,-5.859375,-81.787109375,-85.0830078125,25
2021-06-16 15:36:59.110996,-0.4442138671875,0.3902587890625,-0.6676025390625,-19.4091796875,-80.01708984375,-86.73095703125,22
2021-06-16 15:36:59.173651,-0.4991455078125,0.47021484375,-0.666259765625,-36.43798828125,-77.880859375,-82.03125,20
2021-06-16 15:36:59.235613,-0.489013671875,0.416748046875,-0.5625,-20.751953125,-75.74462890625,-89.78271484375,21
2021-06-16 15:36:59.298922,-0.58837890625,0.2799072265625,-0.540771484375,-14.5263671875,-71.2890625,-87.158203125,20
2021-06-16 15:36:59.360722,-0.6165771484375,0.2354736328125,-0.462158203125,-24.71923828125,-61.21826171875,-88.31787109375,20
2021-06-16 15:36:59.422774,-0.5968017578125,0.1763916015625,-0.46630859375,-22.39990234375,-50.1708984375,-95.21484375,19
2021-06-16 15:36:59.484112,-0.652587890625,0.1572265625,-0.415283203125,-24.4140625,-41.56494140625,-98.93798828125,19
2021-06-16 15:36:59.547357,-0.70068359375,0.0205078125,-0.357177734375,-26.18408203125,-23.74267578125,-97.35107421875,18
2021-06-16 15:36:59.608962,-0.7186279296875,0.0283203125,-0.3463134765625,-44.43359375,-10.07080078125,-107.177734375,19
2021-06-16 15:36:59.671339,-0.72412109375,-0.08154296875,-0.3485107421875,-41.1376953125,10.6201171875,-91.73583984375,18
2021-06-16 15:36:59.731696,-0.695556640625,0.019287109375,-0.515380859375,-35.400390625,14.7705078125,-91.552734375,19
2021-06-16 15:36:59.794315,-0.7249755859375,-0.1590576171875,-0.4622802734375,-40.83251953125,17.2119140625,-88.7451171875,19
2021-06-16 15:36:59.856265,-0.8350830078125,-0.243408203125,-0.5244140625,-15.93017578125,14.83154296875,-70.25146484375,18
2021-06-16 15:36:59.918994,-0.8087158203125,-0.19287109375,-0.602783203125,-7.62939453125,14.6484375,-69.88525390625,19
2021-06-16 15:36:59.980599,-0.83544921875,-0.2886962890625,-0.4554443359375,-10.3759765625,14.46533203125,-56.15234375,18
2021-06-16 15:37:00.042618,-0.796630859375,-0.3355712890625,-0.608642578125,-1.220703125,6.34765625,-37.17041015625,18
2021-06-16 15:37:00.105105,-0.748291015625,-0.318603515625,-0.5008544921875,-18.37158203125,2.685546875,-29.35791015625,18
2021-06-16 15:37:00.165991,-0.82666015625,-0.355224609375,-0.515380859375,-11.8408203125,3.47900390625,-11.8408203125,17
2021-06-16 15:37:00.228771,-0.7984619140625,-0.3414306640625,-0.5538330078125,-21.91162109375,3.35693359375,-3.173828125,18
2021-06-16 15:37:00.291351,-0.8262939453125,-0.2752685546875,-0.5430908203125,-24.23095703125,3.72314453125,-0.6103515625,18
2021-06-16 15:37:00.354592,-0.815185546875,-0.267578125,-0.557373046875,-6.34765625,3.11279296875,-9.1552734375,17
2021-06-16 15:37:00.416776,-0.8245849609375,-0.2232666015625,-0.5150146484375,-6.591796875,12.3291015625,-19.775390625,17
2021-06-16 15:37:00.478703,-0.8057861328125,-0.2711181640625,-0.60546875,13.85498046875,15.869140625,-21.6064453125,18
2021-06-16 15:37:00.540410,-0.6927490234375,-0.3248291015625,-0.54833984375,10.6201171875,17.39501953125,-23.681640625,18
2021-06-16 15:37:00.602750,-0.709228515625,-0.3265380859375,-0.6153564453125,-0.18310546875,20.1416015625,-20.263671875,17
2021-06-16 15:37:00.665035,-0.675537109375,-0.379638671875,-0.620849609375,0.1220703125,19.53125,-16.17431640625,18
2021-06-16 15:37:00.727892,-0.6583251953125,-0.3338623046875,-0.63427734375,-7.01904296875,16.54052734375,-11.1083984375,18
2021-06-16 15:37:00.790497,-0.7130126953125,-0.3057861328125,-0.6741943359375,0.42724609375,15.44189453125,-15.93017578125,17
2021-06-16 15:37:00.852614,-0.7191162109375,-0.3594970703125,-0.631591796875,-2.25830078125,9.33837890625,-12.14599609375,17
2021-06-16 15:37:00.915004,-0.7003173828125,-0.36669921875,-0.68310546875,4.45556640625,8.85009765625,-6.40869140625,17
2021-06-16 15:37:00.977325,-0.70166015625,-0.388671875,-0.65087890625,-4.0283203125,8.23974609375,-3.60107421875,17
2021-06-16 15:37:01.039370,-0.6844482421875,-0.3394775390625,-0.6878662109375,-5.4931640625,8.1787109375,2.197265625,17
2021-06-16 15:37:01.102075,-0.6690673828125,-0.3446044921875,-0.697509765625,-5.43212890625,3.0517578125,13.5498046875,16
2021-06-16 15:37:01.164281,-0.6705322265625,-0.354736328125,-0.69921875,-5.2490234375,0.67138671875,19.287109375,17
2021-06-16 15:37:01.224721,-0.65576171875,-0.2921142578125,-0.6590576171875,-3.41796875,1.77001953125,22.216796875,18
2021-06-16 15:37:01.286551,-0.675048828125,-0.319580078125,-0.715087890625,6.28662109375,3.84521484375,22.705078125,16
2021-06-16 15:37:01.348714,-0.642333984375,-0.3267822265625,-0.7196044921875,1.77001953125,2.685546875,24.2919921875,17
2021-06-16 15:37:01.409932,-0.64208984375,-0.2698974609375,-0.655517578125,4.7607421875,5.615234375,21.240234375,17
2021-06-16 15:37:01.471526,-0.6549072265625,-0.3070068359375,-0.7164306640625,0.732421875,2.8076171875,28.38134765625,17
2021-06-16 15:37:01.533556,-0.6414794921875,-0.3082275390625,-0.720703125,-1.28173828125,2.25830078125,37.65869140625,18
2021-06-16 15:37:01.596483,-0.6287841796875,-0.1744384765625,-0.72705078125,-2.50244140625,3.0517578125,40.22216796875,18
2021-06-16 15:37:01.659521,-0.6729736328125,-0.2689208984375,-0.73046875,2.44140625,-3.60107421875,48.2177734375,18
2021-06-16 15:37:01.722379,-0.693603515625,-0.184814453125,-0.7318115234375,-5.0048828125,-3.35693359375,59.08203125,17
2021-06-16 15:37:01.784947,-0.6934814453125,-0.1455078125,-0.7119140625,3.7841796875,-2.0751953125,61.1572265625,17
2021-06-16 15:37:01.847398,-0.683837890625,-0.1463623046875,-0.749267578125,-2.13623046875,-4.69970703125,65.61279296875,16
2021-06-16 15:37:01.910882,-0.68212890625,-0.03271484375,-0.73388671875,-0.54931640625,-7.8125,66.46728515625,16
2021-06-16 15:37:01.972455,-0.7244873046875,-0.0452880859375,-0.72265625,-0.1220703125,-11.29150390625,72.20458984375,16
2021-06-16 15:37:02.034071,-0.7103271484375,-0.03369140625,-0.6300048828125,-7.4462890625,-10.8642578125,73.486328125,19
2021-06-16 15:37:02.095873,-0.7052001953125,0.06005859375,-0.641357421875,-5.4931640625,-7.4462890625,76.59912109375,19
2021-06-16 15:37:02.158000,-0.6417236328125,0.10009765625,-0.6490478515625,4.2724609375,0.3662109375,72.265625,19
2021-06-16 15:37:02.220202,-0.6109619140625,0.1170654296875,-0.6494140625,-4.57763671875,6.2255859375,67.56591796875,19
2021-06-16 15:37:02.282715,-0.65234375,0.154052734375,-0.6273193359375,-1.40380859375,15.7470703125,67.9931640625,19
2021-06-16 15:37:02.344186,-0.605712890625,0.2828369140625,-0.7132568359375,0.30517578125,22.76611328125,55.7861328125,20
2021-06-16 15:37:02.406449,-0.6163330078125,0.0050048828125,-0.5125732421875,14.6484375,29.296875,61.95068359375,21
2021-06-16 15:37:02.468105,-0.5135498046875,0.173828125,-0.564697265625,-19.53125,48.15673828125,78.2470703125,22
2021-06-16 15:37:02.530291,-0.3238525390625,0.4332275390625,-0.7786865234375,-9.033203125,53.3447265625,57.6171875,30
2021-06-16 15:37:02.591531,-0.2999267578125,0.114501953125,-0.5906982421875,-4.5166015625,53.466796875,68.05419921875,53
2021-06-16 15:37:02.653787,-0.2752685546875,0.418212890625,-0.7579345703125,-35.82763671875,62.01171875,82.33642578125,108
2021-06-16 15:37:02.716443,-0.1356201171875,0.4178466796875,-0.73095703125,-14.5263671875,59.75341796875,68.66455078125,129
2021-06-16 15:37:02.778467,-0.1884765625,0.2703857421875,-0.8282470703125,-28.13720703125,55.5419921875,82.58056640625,159
2021-06-16 15:37:02.841279,-0.0262451171875,0.525390625,-0.8621826171875,-21.484375,49.4384765625,78.55224609375,204
2021-06-16 15:37:02.904267,-0.0841064453125,0.5106201171875,-0.8834228515625,-6.65283203125,41.56494140625,62.43896484375,141
2021-06-16 15:37:02.966165,-0.0511474609375,0.46337890625,-0.8653564453125,-10.009765625,36.0107421875,65.7958984375,187
2021-06-16 15:37:03.028245,-0.0076904296875,0.50634765625,-0.8623046875,-14.46533203125,33.38623046875,64.02587890625,218
2021-06-16 15:37:03.091256,0.03515625,0.544921875,-0.8494873046875,-11.5966796875,34.7900390625,59.14306640625,211
2021-06-16 15:37:03.153109,0.0703125,0.4947509765625,-0.8438720703125,-9.765625,34.11865234375,61.8896484375,163
2021-06-16 15:37:03.215992,0.10400390625,0.5537109375,-0.836181640625,-17.63916015625,32.40966796875,64.14794921875,121
2021-06-16 15:37:03.277924,0.1566162109375,0.6085205078125,-0.8232421875,-19.4091796875,27.9541015625,58.28857421875,176
2021-06-16 15:37:03.339517,0.2220458984375,0.6046142578125,-0.8189697265625,-21.05712890625,21.78955078125,62.80517578125,187
2021-06-16 15:37:03.402657,0.2158203125,0.5809326171875,-0.821044921875,-22.39990234375,18.310546875,64.51416015625,129
2021-06-16 15:37:03.465279,0.2821044921875,0.5496826171875,-0.80126953125,-31.8603515625,20.81298828125,63.232421875,100
2021-06-16 15:37:03.527323,0.3675537109375,0.66015625,-0.7764892578125,-25.634765625,15.19775390625,49.98779296875,144
2021-06-16 15:37:03.590132,0.3663330078125,0.587158203125,-0.7528076171875,-19.8974609375,13.18359375,56.5185546875,99
2021-06-16 15:37:03.652743,0.4073486328125,0.6346435546875,-0.758544921875,-20.20263671875,9.21630859375,50.9033203125,97
2021-06-16 15:37:03.715713,0.4000244140625,0.5966796875,-0.695068359375,-15.93017578125,10.009765625,45.10498046875,76
2021-06-16 15:37:03.778119,0.3919677734375,0.60400390625,-0.7000732421875,-3.0517578125,13.427734375,40.10009765625,79
2021-06-16 15:37:03.839605,0.4486083984375,0.60107421875,-0.7259521484375,-9.3994140625,11.23046875,38.39111328125,74
2021-06-16 15:37:03.901257,0.4176025390625,0.58740234375,-0.6502685546875,-4.33349609375,13.3056640625,37.59765625,108
2021-06-16 15:37:03.963728,0.4527587890625,0.567626953125,-0.6640625,-2.13623046875,14.5263671875,36.43798828125,87
2021-06-16 15:37:04.026209,0.477294921875,0.5523681640625,-0.5931396484375,-0.79345703125,21.66748046875,24.59716796875,129
2021-06-16 15:37:04.088722,0.5201416015625,0.515380859375,-0.5726318359375,2.62451171875,27.099609375,28.38134765625,141
2021-06-16 15:37:04.151189,0.6552734375,0.6285400390625,-0.6546630859375,-12.8173828125,19.4091796875,19.71435546875,124
2021-06-16 15:37:04.213030,0.6092529296875,0.546875,-0.569580078125,-20.20263671875,13.73291015625,30.70068359375,119
2021-06-16 15:37:04.274957,0.6002197265625,0.47216796875,-0.570068359375,-27.64892578125,11.16943359375,34.24072265625,74
2021-06-16 15:37:04.335746,0.6976318359375,0.56103515625,-0.6768798828125,-34.7900390625,6.40869140625,26.2451171875,70
