arrival_time,acc_x,acc_y,acc_z,rot_x,rot_y,rot_z,ir_dist
2021-06-29 11:39:04.379342,0.975341796875,0.1451416015625,-0.2269287109375,-0.06103515625,-5.9814453125,-0.91552734375,39
2021-06-29 11:39:04.442116,0.9720458984375,0.1402587890625,-0.22412109375,-1.3427734375,-5.859375,-0.8544921875,40
2021-06-29 11:39:04.504850,0.9730224609375,0.138427734375,-0.2227783203125,-0.9765625,-5.859375,-0.54931640625,40
2021-06-29 11:39:04.567472,0.969970703125,0.141357421875,-0.224853515625,-0.42724609375,-5.92041015625,-0.6103515625,39
2021-06-29 11:39:04.629428,0.9749755859375,0.1400146484375,-0.2200927734375,-0.3662109375,-5.55419921875,-0.54931640625,39
2021-06-29 11:39:04.691581,0.9744873046875,0.14501953125,-0.231201171875,-1.40380859375,-6.40869140625,-0.1220703125,39
2021-06-29 11:39:04.754033,0.971923828125,0.137939453125,-0.2159423828125,-0.18310546875,-5.55419921875,-0.3662109375,42
2021-06-29 11:39:04.816843,0.968994140625,0.14453125,-0.2303466796875,-2.13623046875,-5.7373046875,0.0,43
2021-06-29 11:39:04.879192,0.974853515625,0.141845703125,-0.21875,0.1220703125,-5.859375,-0.30517578125,40
2021-06-29 11:39:04.941472,0.97265625,0.141357421875,-0.22509765625,-0.9765625,-5.55419921875,-0.18310546875,40
2021-06-29 11:39:05.003434,0.97314453125,0.1424560546875,-0.224853515625,-0.6103515625,-5.92041015625,-0.18310546875,41
2021-06-29 11:39:05.065272,0.97119140625,0.134033203125,-0.2264404296875,-0.732421875,-6.4697265625,0.06103515625,41
2021-06-29 11:39:05.127924,0.968994140625,0.1407470703125,-0.2200927734375,-0.79345703125,-5.615234375,0.0,39
2021-06-29 11:39:05.190570,0.9737548828125,0.1412353515625,-0.2269287109375,-1.46484375,-5.4931640625,-0.3662109375,37
2021-06-29 11:39:05.252990,0.9769287109375,0.140869140625,-0.230712890625,-1.708984375,-6.103515625,-0.42724609375,41
2021-06-29 11:39:05.315215,0.973388671875,0.142578125,-0.2203369140625,-0.91552734375,-5.9814453125,-0.3662109375,40
2021-06-29 11:39:05.377232,0.970947265625,0.1397705078125,-0.2249755859375,-0.48828125,-5.7373046875,-0.48828125,42
2021-06-29 11:39:05.439317,0.97412109375,0.139892578125,-0.219482421875,-0.732421875,-5.37109375,-0.6103515625,39
2021-06-29 11:39:05.503005,0.975341796875,0.1412353515625,-0.2301025390625,-1.03759765625,-5.2490234375,-0.54931640625,40
2021-06-29 11:39:05.564994,0.9765625,0.138427734375,-0.2275390625,-0.30517578125,-5.67626953125,-0.42724609375,43
2021-06-29 11:39:05.628027,0.965576171875,0.1444091796875,-0.225341796875,-1.64794921875,-6.65283203125,-0.6103515625,39
2021-06-29 11:39:05.690150,0.97021484375,0.140869140625,-0.22412109375,-0.42724609375,-5.7373046875,-0.8544921875,39
2021-06-29 11:39:05.751828,0.973388671875,0.1402587890625,-0.2255859375,-0.732421875,-5.4931640625,-1.0986328125,40
2021-06-29 11:39:05.814482,0.970947265625,0.153076171875,-0.2510986328125,2.50244140625,-6.8359375,-0.9765625,42
2021-06-29 11:39:05.876717,0.974609375,0.1680908203125,-0.20263671875,7.87353515625,-2.74658203125,-4.45556640625,40
2021-06-29 11:39:05.939373,0.9759521484375,0.10595703125,-0.2235107421875,-5.18798828125,-1.77001953125,-0.42724609375,41
2021-06-29 11:39:06.001119,0.9669189453125,0.1455078125,-0.2181396484375,-3.60107421875,-4.5166015625,2.9296875,38
2021-06-29 11:39:06.063714,0.984619140625,0.1231689453125,-0.2398681640625,-0.1220703125,-6.28662109375,2.99072265625,40
2021-06-29 11:39:06.126636,0.9803466796875,0.109130859375,-0.247314453125,-1.64794921875,-9.033203125,5.37109375,39
2021-06-29 11:39:06.188458,0.976806640625,0.126220703125,-0.2386474609375,-4.39453125,-11.53564453125,4.94384765625,37
2021-06-29 11:39:06.250164,0.9671630859375,0.12646484375,-0.227294921875,-5.4931640625,-12.26806640625,4.57763671875,40
2021-06-29 11:39:06.312733,0.9639892578125,0.1363525390625,-0.2261962890625,-6.9580078125,-11.1083984375,3.7841796875,42
2021-06-29 11:39:06.375125,0.9725341796875,0.1363525390625,-0.232666015625,-4.08935546875,-9.94873046875,2.86865234375,41
2021-06-29 11:39:06.437536,0.969482421875,0.122802734375,-0.2490234375,-4.69970703125,-10.1318359375,2.25830078125,42
2021-06-29 11:39:06.501201,0.9566650390625,0.13232421875,-0.24365234375,-3.60107421875,-10.498046875,1.89208984375,41
2021-06-29 11:39:06.564104,0.96826171875,0.1070556640625,-0.2252197265625,-0.9765625,-8.23974609375,-0.244140625,41
2021-06-29 11:39:06.625493,0.9656982421875,0.11767578125,-0.2381591796875,-3.72314453125,-8.4228515625,0.79345703125,41
2021-06-29 11:39:06.688791,0.970703125,0.1290283203125,-0.2109375,-0.79345703125,-6.4697265625,-0.91552734375,42
2021-06-29 11:39:06.750253,0.974365234375,0.1329345703125,-0.2366943359375,-3.173828125,-4.82177734375,0.06103515625,42
2021-06-29 11:39:06.812759,0.95849609375,0.166015625,-0.2066650390625,0.42724609375,-3.47900390625,-1.89208984375,43
2021-06-29 11:39:06.875323,0.9613037109375,0.0977783203125,-0.2080078125,4.45556640625,-3.2958984375,-0.1220703125,42
2021-06-29 11:39:06.939270,0.959716796875,0.1656494140625,-0.1802978515625,-15.19775390625,-0.48828125,-0.9765625,41
2021-06-29 11:39:07.001137,0.95947265625,0.1400146484375,-0.18017578125,6.16455078125,3.5400390625,-0.42724609375,41
2021-06-29 11:39:07.064765,1.002685546875,0.1129150390625,-0.251953125,8.72802734375,5.43212890625,0.67138671875,42
2021-06-29 11:39:07.127073,0.994140625,0.1256103515625,-0.2481689453125,7.14111328125,0.67138671875,0.67138671875,40
2021-06-29 11:39:07.189486,0.99267578125,0.07763671875,-0.2484130859375,8.9111328125,-3.662109375,2.38037109375,41
2021-06-29 11:39:07.251794,0.98193359375,0.083984375,-0.2569580078125,4.8828125,-5.7373046875,3.41796875,43
2021-06-29 11:39:07.314239,0.9791259765625,0.095947265625,-0.2479248046875,2.8076171875,-8.72802734375,2.3193359375,37
2021-06-29 11:39:07.377048,0.9803466796875,0.0980224609375,-0.2427978515625,-2.3193359375,-13.12255859375,0.67138671875,39
2021-06-29 11:39:07.439483,0.975341796875,0.0897216796875,-0.2427978515625,0.3662109375,-13.916015625,0.8544921875,39
2021-06-29 11:39:07.502057,0.968505859375,0.107421875,-0.2645263671875,0.30517578125,-15.2587890625,0.6103515625,43
2021-06-29 11:39:07.564225,0.9771728515625,0.0814208984375,-0.2435302734375,9.09423828125,-14.5263671875,0.06103515625,46
2021-06-29 11:39:07.627202,0.9571533203125,0.0843505859375,-0.240478515625,1.15966796875,-15.0146484375,0.9765625,44
2021-06-29 11:39:07.690127,0.9708251953125,0.0987548828125,-0.2694091796875,0.79345703125,-13.85498046875,0.0,43
2021-06-29 11:39:07.753126,0.9488525390625,0.072265625,-0.2679443359375,3.90625,-12.451171875,0.8544921875,41
2021-06-29 11:39:07.815770,0.9423828125,0.1181640625,-0.224853515625,4.150390625,-10.80322265625,-3.60107421875,46
2021-06-29 11:39:07.877606,0.972412109375,0.07666015625,-0.2772216796875,9.70458984375,-7.50732421875,-2.74658203125,45
2021-06-29 11:39:07.939448,0.9609375,0.0697021484375,-0.27587890625,3.47900390625,-6.7138671875,-1.64794921875,45
2021-06-29 11:39:08.002874,0.9718017578125,0.078857421875,-0.269775390625,4.5166015625,-4.08935546875,-1.46484375,44
2021-06-29 11:39:08.065034,0.97216796875,0.0933837890625,-0.306884765625,3.35693359375,-7.26318359375,0.48828125,43
2021-06-29 11:39:08.126588,0.9664306640625,0.0548095703125,-0.2706298828125,3.41796875,-4.0283203125,0.0,44
2021-06-29 11:39:08.188901,0.9752197265625,0.1080322265625,-0.3321533203125,-0.42724609375,-7.62939453125,0.244140625,43
2021-06-29 11:39:08.250048,0.9622802734375,0.0714111328125,-0.2669677734375,0.244140625,-5.31005859375,-2.99072265625,40
2021-06-29 11:39:08.312202,0.960205078125,0.1251220703125,-0.3055419921875,-0.91552734375,-6.591796875,-2.99072265625,17
2021-06-29 11:39:08.374965,0.9527587890625,0.0836181640625,-0.2322998046875,7.38525390625,-3.0517578125,-5.859375,16
2021-06-29 11:39:08.436571,0.9521484375,0.088623046875,-0.2623291015625,0.06103515625,-2.8076171875,-5.31005859375,17
2021-06-29 11:39:08.499718,0.984619140625,0.0838623046875,-0.2967529296875,0.48828125,-2.38037109375,-3.2958984375,16
2021-06-29 11:39:08.562170,0.9609375,0.0799560546875,-0.2457275390625,-0.3662109375,-0.244140625,-4.08935546875,16
2021-06-29 11:39:08.624865,0.9871826171875,0.0836181640625,-0.2886962890625,-4.0283203125,-2.197265625,-3.2958984375,20
2021-06-29 11:39:08.688306,0.957275390625,0.1053466796875,-0.2523193359375,-2.74658203125,-3.35693359375,-1.15966796875,25
2021-06-29 11:39:08.749300,0.98046875,0.0875244140625,-0.2774658203125,-2.8076171875,-2.62451171875,-2.74658203125,48
2021-06-29 11:39:08.810685,0.9693603515625,0.1156005859375,-0.2352294921875,-2.9296875,-2.50244140625,-2.86865234375,65
2021-06-29 11:39:08.873057,0.96435546875,0.1124267578125,-0.2552490234375,1.15966796875,-3.35693359375,-1.28173828125,99
2021-06-29 11:39:08.934984,0.9644775390625,0.1080322265625,-0.2366943359375,-3.11279296875,-2.74658203125,-3.47900390625,116
2021-06-29 11:39:08.997215,0.9691162109375,0.10302734375,-0.2484130859375,2.99072265625,-0.30517578125,-3.11279296875,172
2021-06-29 11:39:09.059216,0.9595947265625,0.1243896484375,-0.2296142578125,-4.82177734375,0.30517578125,-4.57763671875,138
2021-06-29 11:39:09.121963,0.969970703125,0.106689453125,-0.2635498046875,1.15966796875,0.42724609375,-5.0048828125,100
2021-06-29 11:39:09.184315,0.946533203125,0.1165771484375,-0.2255859375,-2.25830078125,2.13623046875,-7.32421875,66
2021-06-29 11:39:09.246941,0.98681640625,0.1094970703125,-0.218994140625,-5.92041015625,4.5166015625,-6.04248046875,60
2021-06-29 11:39:09.309942,0.9818115234375,0.1324462890625,-0.237548828125,-7.2021484375,6.16455078125,-7.080078125,51
2021-06-29 11:39:09.372680,0.991943359375,0.1219482421875,-0.2230224609375,2.685546875,2.62451171875,-4.33349609375,48
2021-06-29 11:39:09.435240,0.9908447265625,0.1324462890625,-0.19873046875,-3.2958984375,0.42724609375,-5.9814453125,39
2021-06-29 11:39:09.498247,0.983154296875,0.1280517578125,-0.2469482421875,-4.638671875,-3.35693359375,-3.90625,36
2021-06-29 11:39:09.561141,0.948974609375,0.1156005859375,-0.2462158203125,0.3662109375,-2.74658203125,-0.42724609375,32
2021-06-29 11:39:09.624043,0.992919921875,0.1597900390625,-0.2088623046875,0.18310546875,-2.5634765625,-5.55419921875,30
2021-06-29 11:39:09.686266,0.9854736328125,0.123046875,-0.1961669921875,-3.47900390625,-9.09423828125,-2.13623046875,27
2021-06-29 11:39:09.750276,0.975341796875,0.1363525390625,-0.2288818359375,2.0751953125,-12.3291015625,0.67138671875,28
2021-06-29 11:39:09.811745,0.960205078125,0.151611328125,-0.1865234375,5.55419921875,-12.20703125,1.15966796875,37
2021-06-29 11:39:09.872393,0.98095703125,0.0989990234375,-0.2027587890625,8.4228515625,-11.8408203125,1.03759765625,76
2021-06-29 11:39:09.935761,0.98046875,0.1553955078125,-0.2239990234375,5.43212890625,-13.671875,4.45556640625,83
2021-06-29 11:39:09.997629,0.9556884765625,0.100341796875,-0.2354736328125,3.0517578125,-13.85498046875,7.32421875,82
2021-06-29 11:39:10.060226,0.9498291015625,0.1373291015625,-0.2325439453125,8.9111328125,-14.5263671875,5.126953125,409
2021-06-29 11:39:10.121633,0.9932861328125,0.1131591796875,-0.2452392578125,0.6103515625,-9.21630859375,1.708984375,555
2021-06-29 11:39:10.182745,0.9703369140625,0.0899658203125,-0.28466796875,-0.79345703125,-18.49365234375,6.40869140625,953
2021-06-29 11:39:10.244157,0.957763671875,0.147216796875,-0.2386474609375,-2.86865234375,-8.30078125,0.8544921875,106
2021-06-29 11:39:10.306974,0.985595703125,0.0914306640625,-0.23291015625,5.18798828125,-10.6201171875,-0.3662109375,81
2021-06-29 11:39:10.369155,0.9688720703125,0.10009765625,-0.248046875,-7.9345703125,-12.51220703125,6.103515625,39
2021-06-29 11:39:10.431858,0.957763671875,0.123779296875,-0.26611328125,-5.18798828125,-9.8876953125,3.84521484375,42
2021-06-29 11:39:10.495069,0.9683837890625,0.1337890625,-0.2318115234375,0.6103515625,-3.90625,2.62451171875,31
2021-06-29 11:39:10.556947,0.96630859375,0.0892333984375,-0.2503662109375,-7.50732421875,-6.9580078125,3.5400390625,22
2021-06-29 11:39:10.617972,0.989990234375,0.1243896484375,-0.2774658203125,-5.126953125,-6.53076171875,3.662109375,17
2021-06-29 11:39:10.681256,0.9605712890625,0.116455078125,-0.229736328125,-2.0751953125,-6.65283203125,3.662109375,15
2021-06-29 11:39:10.744592,0.97802734375,0.0743408203125,-0.2916259765625,-7.568359375,-5.92041015625,2.3193359375,15
2021-06-29 11:39:10.806786,0.9638671875,0.092041015625,-0.2275390625,-1.3427734375,-8.544921875,3.60107421875,29
2021-06-29 11:39:10.869788,0.9710693359375,0.10205078125,-0.2947998046875,-11.16943359375,-7.50732421875,1.77001953125,44
2021-06-29 11:39:10.932897,0.955078125,0.0880126953125,-0.23095703125,0.0,-4.7607421875,1.5869140625,48
2021-06-29 11:39:10.995336,0.9801025390625,0.087890625,-0.247802734375,-8.23974609375,-6.16455078125,2.62451171875,48
2021-06-29 11:39:11.057801,0.9696044921875,0.08935546875,-0.262451171875,-8.48388671875,-5.126953125,5.92041015625,44
2021-06-29 11:39:11.120511,0.955322265625,0.1080322265625,-0.257568359375,-10.55908203125,-4.94384765625,3.96728515625,46
2021-06-29 11:39:11.181817,0.9532470703125,0.1055908203125,-0.2598876953125,-5.859375,-3.90625,0.42724609375,51
2021-06-29 11:39:11.244359,0.96240234375,0.0908203125,-0.2396240234375,0.1220703125,-2.74658203125,-0.48828125,50
2021-06-29 11:39:11.307116,0.978759765625,0.0947265625,-0.250732421875,-8.23974609375,-1.77001953125,-2.0751953125,48
2021-06-29 11:39:11.369331,0.975830078125,0.0845947265625,-0.2701416015625,-3.47900390625,-1.03759765625,-0.6103515625,47
2021-06-29 11:39:11.430612,0.9566650390625,0.115478515625,-0.23876953125,-3.7841796875,-3.47900390625,0.30517578125,48
2021-06-29 11:39:11.494407,1.001953125,0.0780029296875,-0.2767333984375,-6.103515625,-1.64794921875,-3.7841796875,51
2021-06-29 11:39:11.556422,0.9605712890625,0.086181640625,-0.2457275390625,3.7841796875,-4.33349609375,-0.30517578125,48
2021-06-29 11:39:11.619904,0.9862060546875,0.087158203125,-0.2587890625,-4.33349609375,-2.74658203125,-2.01416015625,46
2021-06-29 11:39:11.681757,0.9718017578125,0.089111328125,-0.2574462890625,-8.36181640625,-6.04248046875,-1.52587890625,46
2021-06-29 11:39:11.744076,0.97216796875,0.1119384765625,-0.2313232421875,-3.11279296875,-4.69970703125,-2.86865234375,48
2021-06-29 11:39:11.806061,0.9713134765625,0.0975341796875,-0.2264404296875,-1.15966796875,-0.79345703125,-2.9296875,45
2021-06-29 11:39:11.868789,0.9725341796875,0.10546875,-0.2330322265625,-5.55419921875,-1.953125,-4.57763671875,43
2021-06-29 11:39:11.930809,0.96337890625,0.1036376953125,-0.244140625,-3.60107421875,-4.45556640625,-3.11279296875,46
2021-06-29 11:39:11.994016,0.981689453125,0.09912109375,-0.222900390625,3.90625,0.30517578125,-4.94384765625,45
2021-06-29 11:39:12.056640,0.9852294921875,0.0802001953125,-0.254638671875,-3.72314453125,-2.50244140625,-1.64794921875,45
2021-06-29 11:39:12.120197,0.97216796875,0.1192626953125,-0.2357177734375,-3.96728515625,-4.150390625,-2.9296875,47
2021-06-29 11:39:12.181817,0.9794921875,0.0904541015625,-0.2249755859375,-1.15966796875,-3.23486328125,-1.5869140625,43
2021-06-29 11:39:12.243249,0.973876953125,0.1063232421875,-0.23876953125,-2.3193359375,-5.126953125,-0.67138671875,43
2021-06-29 11:39:12.305883,0.955078125,0.138671875,-0.20703125,2.86865234375,-1.953125,-3.7841796875,43
2021-06-29 11:39:12.367524,0.977783203125,0.11328125,-0.2164306640625,4.45556640625,-1.0986328125,-6.8359375,41
