arrival_time,acc_x,acc_y,acc_z,rot_x,rot_y,rot_z,ir_dist
2021-06-29 11:58:18.472966,0.998046875,0.07568359375,-0.0367431640625,-0.30517578125,-3.662109375,-0.54931640625,26
2021-06-29 11:58:18.535431,0.999755859375,0.0699462890625,-0.0374755859375,0.91552734375,-3.7841796875,0.0,29
2021-06-29 11:58:18.597032,1.0023193359375,0.0670166015625,-0.034912109375,0.30517578125,-3.41796875,0.0,25
2021-06-29 11:58:18.659358,1.003173828125,0.0697021484375,-0.033203125,-0.18310546875,-3.47900390625,0.18310546875,24
2021-06-29 11:58:18.721812,1.00439453125,0.065673828125,-0.0361328125,0.30517578125,-3.84521484375,0.0,23
2021-06-29 11:58:18.784842,1.0003662109375,0.0675048828125,-0.041015625,0.06103515625,-3.7841796875,-0.06103515625,29
2021-06-29 11:58:18.847293,1.0013427734375,0.072021484375,-0.0435791015625,1.28173828125,-3.35693359375,0.06103515625,25
2021-06-29 11:58:18.908768,1.003662109375,0.0692138671875,-0.038330078125,1.0986328125,-3.662109375,0.18310546875,24
2021-06-29 11:58:18.970566,1.0057373046875,0.0677490234375,-0.0377197265625,1.03759765625,-3.662109375,-15.625,21
2021-06-29 11:58:19.032189,1.0018310546875,0.068603515625,-0.035888671875,1.0986328125,-3.96728515625,-0.54931640625,23
2021-06-29 11:58:19.094299,1.0040283203125,0.069091796875,-0.0372314453125,0.30517578125,-4.39453125,-0.8544921875,22
2021-06-29 11:58:19.156130,1.009521484375,0.0693359375,-0.0406494140625,0.79345703125,-4.21142578125,-0.8544921875,22
2021-06-29 11:58:19.218524,1.0009765625,0.069580078125,-0.033203125,1.953125,-3.72314453125,-0.3662109375,21
2021-06-29 11:58:19.280246,0.99755859375,0.0626220703125,-0.037109375,0.18310546875,-4.638671875,-0.1220703125,25
2021-06-29 11:58:19.343099,1.0028076171875,0.0660400390625,-0.0389404296875,-0.3662109375,-4.08935546875,-0.91552734375,27
2021-06-29 11:58:19.404542,1.009521484375,0.07177734375,-0.03759765625,0.42724609375,-3.84521484375,-0.67138671875,24
2021-06-29 11:58:19.467464,1.0106201171875,0.062255859375,-0.03662109375,1.28173828125,-3.60107421875,-0.67138671875,23
2021-06-29 11:58:19.530981,1.005615234375,0.0634765625,-0.036865234375,-0.91552734375,-3.60107421875,-0.6103515625,25
2021-06-29 11:58:19.594841,0.998779296875,0.0634765625,-0.0355224609375,0.1220703125,-3.84521484375,-0.91552734375,22
2021-06-29 11:58:19.658028,0.999267578125,0.0660400390625,-0.0404052734375,-0.42724609375,-3.84521484375,-0.67138671875,22
2021-06-29 11:58:19.720461,1.0025634765625,0.0699462890625,-0.0379638671875,-0.30517578125,-3.60107421875,-0.54931640625,23
2021-06-29 11:58:19.783321,1.0047607421875,0.06689453125,-0.03466796875,1.220703125,-3.72314453125,-0.732421875,25
2021-06-29 11:58:19.846125,1.0057373046875,0.058349609375,-0.033935546875,1.708984375,-3.7841796875,-1.0986328125,26
2021-06-29 11:58:19.908958,1.0003662109375,0.062255859375,-0.0313720703125,0.79345703125,-3.96728515625,-1.5869140625,23
2021-06-29 11:58:19.972857,0.9964599609375,0.0655517578125,-0.0382080078125,0.732421875,-4.82177734375,-1.40380859375,36
2021-06-29 11:58:20.036616,0.993896484375,0.06396484375,-0.0377197265625,1.28173828125,-5.55419921875,-0.9765625,33
2021-06-29 11:58:20.099472,0.9893798828125,0.0577392578125,-0.038330078125,0.48828125,-5.7373046875,-0.48828125,29
2021-06-29 11:58:20.161308,0.997802734375,0.052734375,-0.0433349609375,0.18310546875,-4.638671875,-0.1220703125,33
2021-06-29 11:58:20.225112,0.998291015625,0.0548095703125,-0.047119140625,-0.06103515625,-4.5166015625,0.6103515625,32
2021-06-29 11:58:20.287490,0.990966796875,0.05322265625,-0.0526123046875,1.28173828125,-5.7373046875,1.5869140625,34
2021-06-29 11:58:20.348183,0.9691162109375,0.0592041015625,-0.0728759765625,2.62451171875,-6.65283203125,2.50244140625,35
2021-06-29 11:58:20.410628,0.9412841796875,0.057861328125,-0.0743408203125,2.44140625,-7.87353515625,3.662109375,42
2021-06-29 11:58:20.472840,0.8980712890625,0.0477294921875,-0.08056640625,2.5634765625,-13.36669921875,3.84521484375,49
2021-06-29 11:58:20.535035,0.8900146484375,0.0556640625,-0.1531982421875,-11.16943359375,-5.37109375,6.28662109375,51
2021-06-29 11:58:20.596068,0.9805908203125,0.075439453125,-0.1602783203125,-29.35791015625,-9.765625,6.40869140625,37
2021-06-29 11:58:20.658390,1.068359375,0.0731201171875,-0.18115234375,-12.0849609375,-5.43212890625,6.16455078125,34
2021-06-29 11:58:20.720791,1.0068359375,0.034423828125,-0.18212890625,4.69970703125,-1.3427734375,4.5166015625,119
2021-06-29 11:58:20.783386,0.9986572265625,0.0147705078125,-0.19091796875,6.7138671875,-3.2958984375,-0.54931640625,106
2021-06-29 11:58:20.846365,1.0179443359375,0.0244140625,-0.1854248046875,0.9765625,-9.82666015625,-3.90625,124
2021-06-29 11:58:20.909338,1.002197265625,0.0341796875,-0.1888427734375,4.21142578125,-15.0146484375,-7.01904296875,147
2021-06-29 11:58:20.970699,0.971923828125,0.0157470703125,-0.18310546875,6.65283203125,-15.19775390625,-11.77978515625,250
2021-06-29 11:58:21.032660,0.9981689453125,0.0198974609375,-0.25048828125,12.51220703125,-13.12255859375,-15.380859375,953
2021-06-29 11:58:21.095832,0.996337890625,-0.006591796875,-0.2994384765625,15.625,-9.94873046875,-17.76123046875,648
2021-06-29 11:58:21.157497,0.9461669921875,-0.00390625,-0.2734375,7.2021484375,-8.544921875,-18.73779296875,555
2021-06-29 11:58:21.220886,0.917236328125,0.01318359375,-0.30224609375,3.23486328125,-6.16455078125,-15.07568359375,119
2021-06-29 11:58:21.283137,0.8975830078125,0.020263671875,-0.32470703125,2.9296875,-5.06591796875,-12.75634765625,232
2021-06-29 11:58:21.345681,0.8685302734375,-0.011474609375,-0.314453125,7.9345703125,-4.2724609375,-11.41357421875,232
2021-06-29 11:58:21.407297,0.8280029296875,-0.0172119140625,-0.30859375,2.25830078125,-0.54931640625,-10.1318359375,68
2021-06-29 11:58:21.470191,0.78515625,-0.025146484375,-0.290771484375,6.40869140625,0.6103515625,-11.23046875,132
2021-06-29 11:58:21.532402,0.72021484375,-0.019287109375,-0.267333984375,8.4228515625,1.220703125,-12.20703125,114
2021-06-29 11:58:21.593524,0.63232421875,-0.0010986328125,-0.235107421875,7.38525390625,1.5869140625,-13.48876953125,61
2021-06-29 11:58:21.656332,0.583251953125,0.0333251953125,-0.1519775390625,5.79833984375,1.708984375,-15.7470703125,53
2021-06-29 11:58:21.718119,0.709716796875,0.0662841796875,-0.119873046875,0.732421875,5.37109375,-12.451171875,33
2021-06-29 11:58:21.779538,0.9019775390625,0.1717529296875,-0.11083984375,-1.15966796875,14.46533203125,-6.2255859375,30
2021-06-29 11:58:21.841308,0.8271484375,0.1859130859375,0.0921630859375,-9.6435546875,2.50244140625,-5.37109375,43
2021-06-29 11:58:21.903193,0.8934326171875,0.16796875,0.15478515625,7.87353515625,-5.126953125,2.197265625,51
2021-06-29 11:58:21.965317,1.023193359375,0.2381591796875,0.013671875,10.19287109375,2.86865234375,5.859375,53
2021-06-29 11:58:22.027781,0.998779296875,0.3358154296875,0.191162109375,14.83154296875,4.5166015625,5.18798828125,65
2021-06-29 11:58:22.089895,0.9097900390625,0.261962890625,0.282470703125,10.25390625,-9.33837890625,12.939453125,66
2021-06-29 11:58:22.151375,0.8607177734375,0.19677734375,0.27685546875,-8.85009765625,-13.427734375,10.43701171875,55
2021-06-29 11:58:22.212756,1.0330810546875,0.223876953125,0.1932373046875,-39.61181640625,-5.4931640625,3.47900390625,55
2021-06-29 11:58:22.275164,1.046875,0.341796875,0.15185546875,-29.11376953125,-8.056640625,3.0517578125,52
2021-06-29 11:58:22.337423,0.9959716796875,0.2864990234375,0.2015380859375,9.765625,-12.939453125,-0.67138671875,51
2021-06-29 11:58:22.399256,1.0802001953125,0.24072265625,0.14453125,10.3759765625,-7.99560546875,2.50244140625,73
2021-06-29 11:58:22.463152,1.1124267578125,0.2335205078125,0.1732177734375,1.40380859375,-3.23486328125,-1.46484375,65
2021-06-29 11:58:22.525619,1.1741943359375,0.2144775390625,0.1312255859375,-1.28173828125,-0.18310546875,-0.244140625,70
2021-06-29 11:58:22.587599,1.231689453125,0.2088623046875,0.0782470703125,-2.50244140625,4.150390625,-0.1220703125,66
2021-06-29 11:58:22.651337,1.3533935546875,0.189453125,0.068603515625,4.21142578125,10.07080078125,1.40380859375,71
2021-06-29 11:58:22.713317,1.3450927734375,0.160888671875,0.1123046875,13.61083984375,9.58251953125,4.5166015625,83
2021-06-29 11:58:22.774930,1.435791015625,0.1513671875,0.1275634765625,9.09423828125,9.1552734375,8.544921875,94
2021-06-29 11:58:22.837137,1.4835205078125,0.1407470703125,0.1236572265625,9.94873046875,7.8125,10.07080078125,82
2021-06-29 11:58:22.899029,1.4580078125,0.103515625,0.1475830078125,15.56396484375,1.64794921875,7.87353515625,70
2021-06-29 11:58:22.963090,1.4425048828125,0.0894775390625,0.1290283203125,14.0380859375,1.52587890625,4.39453125,61
2021-06-29 11:58:23.024357,1.3316650390625,0.1351318359375,0.14453125,7.8125,-1.77001953125,1.52587890625,53
2021-06-29 11:58:23.086117,1.3248291015625,0.1282958984375,0.113037109375,10.8642578125,-7.6904296875,1.953125,56
2021-06-29 11:58:23.148697,1.25634765625,0.1180419921875,0.1085205078125,6.103515625,-8.23974609375,1.46484375,52
2021-06-29 11:58:23.211610,1.2037353515625,0.1427001953125,0.11328125,-5.126953125,-6.77490234375,5.18798828125,55
2021-06-29 11:58:23.274535,1.1644287109375,0.138671875,0.1217041015625,-15.7470703125,-9.033203125,7.6904296875,50
2021-06-29 11:58:23.337868,1.1474609375,0.1331787109375,0.1092529296875,-15.7470703125,-10.1318359375,7.62939453125,53
2021-06-29 11:58:23.399494,1.119384765625,0.136962890625,0.1009521484375,-9.521484375,-12.26806640625,6.103515625,51
2021-06-29 11:58:23.461848,1.09521484375,0.123779296875,0.140869140625,5.37109375,-14.58740234375,0.6103515625,54
2021-06-29 11:58:23.524142,1.0928955078125,0.130859375,0.1549072265625,-0.732421875,-14.2822265625,-1.89208984375,50
2021-06-29 11:58:23.587422,1.0791015625,0.140380859375,0.1531982421875,-15.19775390625,-12.939453125,-3.2958984375,50
2021-06-29 11:58:23.649513,1.1239013671875,0.1400146484375,0.1556396484375,-19.6533203125,-12.26806640625,-3.96728515625,50
2021-06-29 11:58:23.712015,1.1119384765625,0.1629638671875,0.1524658203125,-16.54052734375,-11.71875,-3.96728515625,54
2021-06-29 11:58:23.775238,1.125732421875,0.14990234375,0.12890625,-8.9111328125,-10.498046875,-5.92041015625,50
2021-06-29 11:58:23.837141,1.14111328125,0.1317138671875,0.1435546875,9.58251953125,-13.12255859375,-9.33837890625,81
2021-06-29 11:58:23.900751,1.158447265625,0.0860595703125,0.1507568359375,23.4375,-16.41845703125,-13.7939453125,90
2021-06-29 11:58:23.963181,1.2086181640625,0.0928955078125,0.0982666015625,33.99658203125,-18.5546875,-15.2587890625,50
2021-06-29 11:58:24.025319,1.1990966796875,0.0791015625,0.0625,42.6025390625,-21.8505859375,-14.404296875,44
2021-06-29 11:58:24.087723,1.0870361328125,0.0814208984375,0.017333984375,50.4150390625,-25.69580078125,-5.67626953125,112
2021-06-29 11:58:24.150543,0.80224609375,0.00634765625,0.0286865234375,14.09912109375,-30.1513671875,-0.06103515625,100
2021-06-29 11:58:24.212746,0.50634765625,0.079833984375,-0.0477294921875,-3.84521484375,-33.447265625,-1.89208984375,172
2021-06-29 11:58:24.275596,0.5489501953125,-0.091552734375,-0.2596435546875,24.71923828125,-36.62109375,-12.02392578125,90
2021-06-29 11:58:24.337187,0.498291015625,0.0106201171875,-0.179931640625,-45.59326171875,-20.01953125,-16.9677734375,70
2021-06-29 11:58:24.399359,0.573974609375,0.162109375,-0.393310546875,-84.77783203125,-14.16015625,-13.24462890625,69
2021-06-29 11:58:24.461530,0.70361328125,0.216064453125,-0.514892578125,-53.03955078125,-9.21630859375,-10.31494140625,104
2021-06-29 11:58:24.524957,0.6593017578125,0.11865234375,-0.4234619140625,8.23974609375,-5.55419921875,-6.8359375,409
2021-06-29 11:58:24.587677,0.74951171875,0.0677490234375,-0.4398193359375,5.0048828125,16.357421875,0.06103515625,409
2021-06-29 11:58:24.649583,0.881591796875,0.042236328125,-0.396240234375,-17.63916015625,33.0810546875,-0.9765625,85
2021-06-29 11:58:24.711228,0.931396484375,0.08935546875,-0.299560546875,-13.3056640625,26.3671875,-0.30517578125,81
2021-06-29 11:58:24.773709,0.9212646484375,0.0692138671875,-0.299560546875,6.9580078125,16.9677734375,0.6103515625,232
2021-06-29 11:58:24.836965,0.906982421875,0.063232421875,-0.307373046875,-0.79345703125,18.6767578125,0.1220703125,211
2021-06-29 11:58:24.899967,0.8929443359375,0.08837890625,-0.2969970703125,-4.82177734375,19.6533203125,0.8544921875,155
2021-06-29 11:58:24.963404,0.926513671875,0.0965576171875,-0.27490234375,-2.38037109375,19.47021484375,2.5634765625,76
2021-06-29 11:58:25.025058,0.9697265625,0.095947265625,-0.2457275390625,-1.28173828125,18.12744140625,6.103515625,79
2021-06-29 11:58:25.087921,0.97021484375,0.10107421875,-0.208740234375,-1.64794921875,13.916015625,8.056640625,126
2021-06-29 11:58:25.149418,0.94921875,0.0943603515625,-0.151611328125,-2.8076171875,9.8876953125,9.09423828125,187
2021-06-29 11:58:25.212121,0.966796875,0.07177734375,-0.118408203125,-5.9814453125,8.544921875,4.0283203125,138
2021-06-29 11:58:25.321393,1.009033203125,0.0882568359375,-0.0960693359375,-5.79833984375,8.48388671875,0.67138671875,204
2021-06-29 11:58:25.383716,0.9796142578125,0.1556396484375,-0.058837890625,-2.44140625,1.46484375,0.9765625,293
2021-06-29 11:58:25.446399,0.9423828125,0.1800537109375,-0.0145263671875,10.43701171875,-7.32421875,4.45556640625,387
2021-06-29 11:58:25.508460,0.9434814453125,0.164306640625,-0.025146484375,2.5634765625,-7.568359375,9.82666015625,198
2021-06-29 11:58:25.571229,0.9683837890625,0.143310546875,-0.030029296875,-16.9677734375,-3.2958984375,11.23046875,53
2021-06-29 11:58:25.634338,1.0081787109375,0.160888671875,-0.005126953125,-37.90283203125,-2.0751953125,13.3056640625,29
2021-06-29 11:58:25.696684,1.002685546875,0.16357421875,0.0086669921875,-29.296875,-6.103515625,12.26806640625,48
2021-06-29 11:58:25.758566,0.9884033203125,0.137939453125,0.034912109375,-13.48876953125,-10.19287109375,9.09423828125,41
2021-06-29 11:58:25.820606,0.971923828125,0.1082763671875,0.04345703125,-1.64794921875,-11.5966796875,3.662109375,44
2021-06-29 11:58:25.882928,0.9794921875,0.1220703125,0.02392578125,-2.86865234375,-9.70458984375,-1.28173828125,44
2021-06-29 11:58:25.945229,0.966552734375,0.1552734375,0.0238037109375,-4.5166015625,-10.7421875,-3.7841796875,39
2021-06-29 11:58:26.007740,0.9451904296875,0.158935546875,0.006591796875,3.84521484375,-12.26806640625,-3.72314453125,44
2021-06-29 11:58:26.069689,0.9324951171875,0.142333984375,-0.024658203125,5.67626953125,-15.5029296875,-4.39453125,71
2021-06-29 11:58:26.132544,0.9246826171875,0.1429443359375,-0.0955810546875,2.8076171875,-14.16015625,-3.5400390625,147
2021-06-29 11:58:26.195663,0.8829345703125,0.1488037109375,-0.0946044921875,2.9296875,-17.4560546875,-3.90625,79
2021-06-29 11:58:26.259127,0.9088134765625,0.1070556640625,-0.1365966796875,2.38037109375,-17.2119140625,-5.55419921875,855
2021-06-29 11:58:26.321161,1.089599609375,0.09619140625,-0.3057861328125,-19.47021484375,1.15966796875,-4.57763671875,56
2021-06-29 11:58:26.383575,1.10595703125,0.107177734375,-0.3370361328125,-26.91650390625,12.87841796875,-4.5166015625,33
