arrival_time,acc_x,acc_y,acc_z,rot_x,rot_y,rot_z,ir_dist
2021-06-29 12:02:02.264773,1.0037841796875,0.086669921875,-0.0269775390625,-1.52587890625,-3.84521484375,-1.40380859375,1227
2021-06-29 12:02:02.327393,1.0047607421875,0.08984375,-0.01953125,-1.3427734375,-3.5400390625,-1.52587890625,1227
2021-06-29 12:02:02.389470,1.0048828125,0.081298828125,-0.0166015625,-0.67138671875,-4.39453125,-1.46484375,1227
2021-06-29 12:02:02.451376,1.0018310546875,0.0855712890625,-0.0157470703125,-2.685546875,-3.5400390625,-1.708984375,1227
2021-06-29 12:02:02.514515,0.970703125,0.0880126953125,-0.017333984375,-2.3193359375,-4.57763671875,-1.8310546875,1380
2021-06-29 12:02:02.577022,1.004638671875,0.0853271484375,-0.0162353515625,-1.708984375,-4.150390625,-1.40380859375,1380
2021-06-29 12:02:02.639104,1.0048828125,0.088134765625,-0.0137939453125,-1.77001953125,-3.41796875,-1.3427734375,1074
2021-06-29 12:02:02.702378,1.0040283203125,0.0865478515625,-0.01416015625,-1.708984375,-3.662109375,-1.0986328125,1074
2021-06-29 12:02:02.765369,1.0001220703125,0.0849609375,-0.011962890625,-2.197265625,-3.60107421875,-1.0986328125,706
2021-06-29 12:02:02.826910,0.997802734375,0.0870361328125,-0.0150146484375,-2.0751953125,-4.638671875,-1.0986328125,1227
2021-06-29 12:02:02.889382,1.0035400390625,0.0919189453125,-0.011962890625,-1.40380859375,-4.150390625,-1.15966796875,1074
2021-06-29 12:02:02.952755,0.9986572265625,0.086669921875,-0.015625,-0.67138671875,-4.5166015625,-1.03759765625,1227
2021-06-29 12:02:03.015354,1.0035400390625,0.085205078125,-0.0126953125,-0.54931640625,-4.638671875,-1.40380859375,1227
2021-06-29 12:02:03.078156,1.00634765625,0.086669921875,-0.0234375,0.42724609375,-4.7607421875,-1.15966796875,1074
2021-06-29 12:02:03.140147,0.9979248046875,0.09228515625,-0.01416015625,1.03759765625,-5.0048828125,-0.8544921875,1074
2021-06-29 12:02:03.202486,0.9970703125,0.0806884765625,-0.01513671875,1.220703125,-5.55419921875,-0.91552734375,1227
2021-06-29 12:02:03.264225,0.999755859375,0.0859375,-0.0205078125,1.40380859375,-5.55419921875,-1.0986328125,1227
2021-06-29 12:02:03.326974,1.0037841796875,0.0921630859375,-0.02001953125,3.0517578125,-5.92041015625,-0.9765625,1380
2021-06-29 12:02:03.389834,1.005859375,0.08056640625,-0.018310546875,3.60107421875,-6.04248046875,-1.0986328125,1227
2021-06-29 12:02:03.452666,1.0032958984375,0.0865478515625,-0.019287109375,2.9296875,-5.7373046875,-0.9765625,1074
2021-06-29 12:02:03.514926,0.9986572265625,0.093994140625,-0.0242919921875,3.23486328125,-5.615234375,-0.8544921875,1227
2021-06-29 12:02:03.578750,0.9986572265625,0.0921630859375,-0.0234375,2.38037109375,-5.79833984375,-0.67138671875,1227
2021-06-29 12:02:03.642579,0.99951171875,0.0933837890625,-0.0269775390625,2.0751953125,-5.4931640625,-0.42724609375,1380
2021-06-29 12:02:03.706407,1.002197265625,0.0963134765625,-0.0272216796875,2.0751953125,-5.2490234375,-0.244140625,1227
2021-06-29 12:02:03.768242,1.0035400390625,0.08740234375,-0.0262451171875,1.64794921875,-5.06591796875,-0.42724609375,1227
2021-06-29 12:02:03.830077,1.0015869140625,0.093017578125,-0.03076171875,0.42724609375,-4.94384765625,-0.79345703125,1074
2021-06-29 12:02:03.893906,1.0025634765625,0.0955810546875,-0.036376953125,0.67138671875,-5.2490234375,-0.9765625,1380
2021-06-29 12:02:03.956737,1.001220703125,0.0963134765625,-0.03759765625,0.8544921875,-5.126953125,-1.0986328125,1380
2021-06-29 12:02:04.020566,1.0018310546875,0.0919189453125,-0.036865234375,1.52587890625,-5.37109375,-1.0986328125,1227
2021-06-29 12:02:04.083398,1.0032958984375,0.0867919921875,-0.0357666015625,1.5869140625,-5.37109375,-1.46484375,1227
2021-06-29 12:02:04.146230,1.0003662109375,0.0888671875,-0.0340576171875,1.0986328125,-4.8828125,-1.5869140625,1227
2021-06-29 12:02:04.207273,0.9971923828125,0.091796875,-0.03662109375,0.91552734375,-5.79833984375,-1.220703125,1380
2021-06-29 12:02:04.268053,0.9969482421875,0.0909423828125,-0.0369873046875,1.15966796875,-5.92041015625,-1.220703125,1380
2021-06-29 12:02:04.330109,0.994140625,0.0906982421875,-0.037353515625,1.953125,-5.43212890625,-1.0986328125,1227
2021-06-29 12:02:04.392492,1.008056640625,0.09375,-0.0335693359375,2.44140625,-5.31005859375,-0.42724609375,1227
2021-06-29 12:02:04.474279,1.0006103515625,0.096435546875,-0.0277099609375,1.89208984375,-5.55419921875,0.0,1227
2021-06-29 12:02:04.536114,0.9951171875,0.0836181640625,-0.038818359375,0.67138671875,-6.28662109375,0.18310546875,1380
2021-06-29 12:02:04.597680,0.9947509765625,0.1046142578125,-0.0404052734375,-1.8310546875,-3.11279296875,0.3662109375,1227
2021-06-29 12:02:04.660053,0.9935302734375,0.1092529296875,-0.031982421875,0.18310546875,-5.2490234375,0.8544921875,1227
2021-06-29 12:02:04.722717,0.996826171875,0.0947265625,-0.0350341796875,-0.91552734375,-4.150390625,0.79345703125,1227
2021-06-29 12:02:04.784997,1.0020751953125,0.1148681640625,-0.033203125,-2.5634765625,-3.60107421875,0.79345703125,1227
2021-06-29 12:02:04.847604,0.9833984375,0.1221923828125,-0.0335693359375,-2.74658203125,-7.62939453125,2.197265625,1227
2021-06-29 12:02:04.909666,0.966552734375,0.1146240234375,-0.025146484375,-7.568359375,-3.662109375,2.13623046875,1227
2021-06-29 12:02:04.971976,0.9656982421875,0.11865234375,-0.042236328125,-10.009765625,-8.544921875,3.0517578125,1227
2021-06-29 12:02:05.033991,0.9801025390625,0.0972900390625,-0.03955078125,-10.43701171875,-8.72802734375,2.74658203125,1074
2021-06-29 12:02:05.096006,0.966552734375,0.09228515625,-0.033447265625,-11.8408203125,-10.92529296875,4.45556640625,1380
2021-06-29 12:02:05.158504,0.9583740234375,0.0789794921875,-0.0430908203125,-12.3291015625,-16.7236328125,6.16455078125,1227
2021-06-29 12:02:05.221308,0.9852294921875,0.0589599609375,-0.0653076171875,-7.87353515625,-12.6953125,8.30078125,1227
2021-06-29 12:02:05.282122,0.9736328125,0.053955078125,-0.0804443359375,-9.46044921875,-13.85498046875,11.71875,1227
2021-06-29 12:02:05.344537,0.976806640625,0.0517578125,-0.0816650390625,-9.82666015625,-12.63427734375,14.34326171875,1227
2021-06-29 12:02:05.407333,0.9796142578125,0.038330078125,-0.0950927734375,-7.87353515625,-8.85009765625,15.80810546875,1227
2021-06-29 12:02:05.469846,0.9725341796875,0.0228271484375,-0.093017578125,-7.50732421875,-12.39013671875,16.17431640625,1380
2021-06-29 12:02:05.532026,0.96728515625,0.0216064453125,-0.1072998046875,-13.0615234375,-14.09912109375,15.869140625,1227
2021-06-29 12:02:05.594175,0.9840087890625,0.037353515625,-0.1368408203125,-11.53564453125,-9.33837890625,14.7705078125,1380
2021-06-29 12:02:05.656864,1.0069580078125,0.005859375,-0.1505126953125,-13.24462890625,-5.9814453125,12.51220703125,855
2021-06-29 12:02:05.719519,1.0419921875,-0.00146484375,-0.1656494140625,-18.98193359375,-1.52587890625,8.72802734375,855
2021-06-29 12:02:05.782082,1.068359375,-0.018310546875,-0.17431640625,-17.51708984375,-1.03759765625,3.84521484375,90
2021-06-29 12:02:05.844651,1.02197265625,-0.0277099609375,-0.1412353515625,-7.8125,-1.64794921875,-3.35693359375,293
2021-06-29 12:02:05.906707,1.0137939453125,-0.0396728515625,-0.154052734375,1.77001953125,-5.859375,-9.1552734375,172
2021-06-29 12:02:05.969674,1.0047607421875,-0.041015625,-0.159912109375,0.0,-6.34765625,-12.939453125,65
2021-06-29 12:02:06.033246,0.9688720703125,-0.0350341796875,-0.1949462890625,1.708984375,-6.7138671875,-15.68603515625,119
2021-06-29 12:02:06.095448,0.98828125,-0.02734375,-0.2003173828125,8.23974609375,-6.16455078125,-16.17431640625,100
2021-06-29 12:02:06.157726,0.994140625,-0.0360107421875,-0.2159423828125,7.4462890625,-3.84521484375,-14.83154296875,104
2021-06-29 12:02:06.220287,0.982177734375,-0.053955078125,-0.2513427734375,8.36181640625,0.8544921875,-12.26806640625,126
2021-06-29 12:02:06.283232,0.977294921875,-0.070556640625,-0.258056640625,-3.7841796875,0.732421875,-7.62939453125,241
2021-06-29 12:02:06.345869,0.9849853515625,-0.033935546875,-0.2779541015625,-4.150390625,-0.18310546875,-3.41796875,204
2021-06-29 12:02:06.408579,0.9581298828125,-0.0782470703125,-0.2911376953125,3.35693359375,-1.28173828125,-3.5400390625,172
2021-06-29 12:02:06.470418,0.968017578125,-0.101806640625,-0.301513671875,6.8359375,0.67138671875,-2.86865234375,141
2021-06-29 12:02:06.532957,0.9521484375,-0.087890625,-0.265380859375,-0.91552734375,0.48828125,-4.82177734375,135
2021-06-29 12:02:06.595549,0.9224853515625,-0.09716796875,-0.280517578125,0.91552734375,-1.89208984375,-6.04248046875,84
2021-06-29 12:02:06.657724,0.8800048828125,-0.0760498046875,-0.27490234375,3.41796875,-0.244140625,-8.60595703125,116
2021-06-29 12:02:06.720604,0.813720703125,-0.0687255859375,-0.255615234375,7.9345703125,-2.38037109375,-11.29150390625,93
2021-06-29 12:02:06.781967,0.762939453125,-0.070068359375,-0.2454833984375,3.662109375,-1.40380859375,-12.87841796875,112
2021-06-29 12:02:06.844398,0.7080078125,-0.0274658203125,-0.226806640625,-3.84521484375,-0.3662109375,-14.70947265625,59
2021-06-29 12:02:06.907237,0.920166015625,0.0726318359375,-0.22802734375,-13.5498046875,7.01904296875,-9.58251953125,49
2021-06-29 12:02:06.970110,1.1019287109375,0.1475830078125,-0.1983642578125,-3.84521484375,17.63916015625,-0.732421875,51
2021-06-29 12:02:07.032889,1.0494384765625,0.1226806640625,0.0443115234375,-6.591796875,7.38525390625,4.57763671875,32
2021-06-29 12:02:07.094033,0.987548828125,0.1591796875,0.0758056640625,-14.09912109375,-19.6533203125,17.27294921875,35
2021-06-29 12:02:07.156297,1.206787109375,0.0179443359375,-0.031494140625,-109.19189453125,-23.37646484375,31.1279296875,45
2021-06-29 12:02:07.217343,0.8194580078125,0.0968017578125,0.0909423828125,-95.947265625,6.53076171875,8.85009765625,28
2021-06-29 12:02:07.278982,0.8900146484375,0.2335205078125,0.2813720703125,-169.61669921875,3.47900390625,18.12744140625,19
2021-06-29 12:02:07.342052,0.966796875,0.2760009765625,0.212890625,-77.0263671875,-22.88818359375,8.7890625,25
2021-06-29 12:02:07.404600,1.0111083984375,0.217529296875,0.1781005859375,-17.39501953125,-20.263671875,3.47900390625,46
2021-06-29 12:02:07.466986,0.9794921875,0.0811767578125,0.15966796875,-2.13623046875,-16.54052734375,-1.64794921875,69
2021-06-29 12:02:07.529923,1.0433349609375,-0.003173828125,0.1976318359375,-10.55908203125,-10.6201171875,-15.44189453125,84
2021-06-29 12:02:07.591533,1.1629638671875,0.0361328125,0.14013671875,-11.53564453125,-4.8828125,-17.63916015625,144
2021-06-29 12:02:07.654453,1.13818359375,0.1240234375,0.1676025390625,0.42724609375,-7.26318359375,-18.6767578125,490
2021-06-29 12:02:07.717015,1.09765625,0.13623046875,0.1549072265625,2.13623046875,-13.671875,-12.26806640625,112
2021-06-29 12:02:07.779838,1.06298828125,0.1201171875,0.059326171875,-0.18310546875,-8.056640625,-7.38525390625,132
2021-06-29 12:02:07.842842,1.0728759765625,0.1146240234375,0.0341796875,-4.45556640625,-2.25830078125,-3.11279296875,106
2021-06-29 12:02:07.905009,1.128662109375,0.104736328125,0.000732421875,-1.220703125,7.14111328125,4.08935546875,82
2021-06-29 12:02:07.967633,1.1368408203125,0.1268310546875,0.01416015625,9.70458984375,9.09423828125,8.4228515625,59
2021-06-29 12:02:08.028896,1.1341552734375,0.1087646484375,0.052490234375,16.845703125,5.615234375,10.6201171875,69
2021-06-29 12:02:08.090465,1.165283203125,0.0634765625,0.0540771484375,19.83642578125,3.0517578125,11.04736328125,75
2021-06-29 12:02:08.152607,1.1448974609375,0.05126953125,0.058349609375,13.24462890625,1.708984375,6.8359375,100
2021-06-29 12:02:08.214478,1.1395263671875,0.0614013671875,0.06982421875,12.51220703125,-3.662109375,4.638671875,132
2021-06-29 12:02:08.276944,1.146484375,0.0941162109375,0.0350341796875,11.16943359375,-6.28662109375,3.2958984375,102
2021-06-29 12:02:08.338250,1.113525390625,0.1055908203125,0.0517578125,13.24462890625,-10.1318359375,0.67138671875,82
2021-06-29 12:02:08.400326,1.1075439453125,0.0950927734375,0.0323486328125,14.404296875,-11.29150390625,-1.708984375,168
2021-06-29 12:02:08.463175,1.12548828125,0.11572265625,0.0152587890625,15.80810546875,-9.70458984375,-3.23486328125,211
2021-06-29 12:02:08.525695,1.133544921875,0.1357421875,0.0318603515625,19.59228515625,-8.7890625,-4.2724609375,1227
2021-06-29 12:02:08.588551,1.1448974609375,0.12841796875,0.0491943359375,24.47509765625,-10.25390625,-4.57763671875,1380
2021-06-29 12:02:08.650556,1.166748046875,0.1146240234375,0.0560302734375,22.4609375,-10.55908203125,-6.53076171875,953
2021-06-29 12:02:08.713329,1.2301025390625,0.10498046875,0.0498046875,23.01025390625,-10.43701171875,-10.3759765625,855
2021-06-29 12:02:08.775961,1.1636962890625,0.115234375,0.11669921875,31.73828125,-14.0380859375,-17.39501953125,706
2021-06-29 12:02:08.838407,1.1290283203125,0.104248046875,0.120361328125,35.5224609375,-17.63916015625,-24.4140625,525
2021-06-29 12:02:08.899442,1.082275390625,0.11181640625,0.078369140625,39.9169921875,-16.54052734375,-31.43310546875,204
2021-06-29 12:02:08.960925,1.070068359375,0.127197265625,0.083251953125,43.88427734375,-12.75634765625,-38.63525390625,132
2021-06-29 12:02:09.023397,1.0318603515625,0.168212890625,0.0927734375,48.52294921875,-10.25390625,-42.1142578125,94
2021-06-29 12:02:09.086698,1.0484619140625,0.17919921875,0.0670166015625,51.7578125,-8.056640625,-42.6025390625,78
2021-06-29 12:02:09.148497,1.064208984375,0.2025146484375,0.0440673828125,50.84228515625,-8.48388671875,-38.0859375,100
2021-06-29 12:02:09.210098,1.1065673828125,0.2423095703125,-0.0164794921875,42.54150390625,-6.2255859375,-25.0244140625,55
2021-06-29 12:02:09.273360,1.062744140625,0.2843017578125,-0.073974609375,41.3818359375,-3.2958984375,-10.19287109375,38
2021-06-29 12:02:09.335701,0.7452392578125,0.2333984375,-0.073486328125,29.23583984375,-9.09423828125,6.7138671875,39
2021-06-29 12:02:09.398296,0.6580810546875,0.0999755859375,-0.19140625,4.33349609375,-7.9345703125,19.59228515625,119
2021-06-29 12:02:09.460185,0.743896484375,0.135986328125,-0.353515625,-21.6064453125,4.45556640625,32.16552734375,59
2021-06-29 12:02:09.521381,0.7008056640625,0.0762939453125,-0.332763671875,-40.34423828125,6.103515625,27.40478515625,22
2021-06-29 12:02:09.582895,0.793212890625,0.14453125,-0.485107421875,-61.1572265625,23.25439453125,31.06689453125,10
2021-06-29 12:02:09.645727,0.7904052734375,0.1533203125,-0.4039306640625,-38.818359375,20.263671875,25.32958984375,7
2021-06-29 12:02:09.707561,0.754150390625,0.161865234375,-0.3048095703125,-5.79833984375,4.82177734375,24.84130859375,7
2021-06-29 12:02:09.770048,0.7537841796875,0.068115234375,-0.3067626953125,17.08984375,-2.74658203125,17.08984375,9
2021-06-29 12:02:09.832292,0.787353515625,0.054931640625,-0.385009765625,-4.8828125,5.37109375,11.8408203125,10
2021-06-29 12:02:09.893889,0.8829345703125,0.0999755859375,-0.3699951171875,-13.97705078125,10.7421875,7.8125,16
2021-06-29 12:02:09.956279,0.9375,0.072998046875,-0.324951171875,-2.197265625,10.986328125,6.9580078125,17
2021-06-29 12:02:10.018312,1.0001220703125,0.053466796875,-0.3023681640625,13.48876953125,13.3056640625,5.2490234375,26
2021-06-29 12:02:10.080332,1.0093994140625,0.031005859375,-0.2420654296875,37.841796875,6.8359375,1.0986328125,77
2021-06-29 12:02:10.142577,1.0411376953125,-0.0052490234375,-0.21044921875,50.1708984375,1.15966796875,-0.91552734375,147
2021-06-29 12:02:10.204912,1.043212890625,-0.0501708984375,-0.15478515625,43.27392578125,-6.16455078125,-5.55419921875,293
