arrival_time,acc_x,acc_y,acc_z,rot_x,rot_y,rot_z,ir_dist
2021-06-30 16:22:43.890137,1.0030517578125,0.093505859375,0.045166015625,-2.44140625,-1.46484375,-1.52587890625,12
2021-06-30 16:22:43.952312,1.0064697265625,0.095703125,0.040771484375,0.732421875,-1.03759765625,-2.25830078125,12
2021-06-30 16:22:44.015109,1.02001953125,0.0767822265625,0.040771484375,4.8828125,-1.5869140625,-2.5634765625,12
2021-06-30 16:22:44.077331,1.0194091796875,0.0706787109375,0.03857421875,3.35693359375,-2.13623046875,-3.0517578125,12
2021-06-30 16:22:44.140324,1.0135498046875,0.068359375,0.0386962890625,2.13623046875,-3.11279296875,-2.99072265625,12
2021-06-30 16:22:44.203403,1.002197265625,0.0667724609375,0.0361328125,-0.06103515625,-3.90625,-2.62451171875,12
2021-06-30 16:22:44.265200,0.994873046875,0.06298828125,0.04638671875,-2.8076171875,-4.33349609375,-2.38037109375,12
2021-06-30 16:22:44.327082,1.004150390625,0.0733642578125,0.0255126953125,-5.9814453125,-2.62451171875,-1.15966796875,12
2021-06-30 16:22:44.390417,1.00537109375,0.068603515625,0.0360107421875,-4.33349609375,-4.69970703125,0.67138671875,12
2021-06-30 16:22:44.450924,0.9930419921875,0.0625,0.0482177734375,-1.64794921875,-5.18798828125,0.79345703125,12
2021-06-30 16:22:44.513866,0.9813232421875,0.0743408203125,0.0419921875,-3.5400390625,-4.57763671875,0.54931640625,12
2021-06-30 16:22:44.576463,1.0045166015625,0.0782470703125,0.04150390625,-2.13623046875,-3.7841796875,1.3427734375,12
2021-06-30 16:22:44.638204,1.034423828125,0.0826416015625,0.0423583984375,0.3662109375,-1.15966796875,1.708984375,12
2021-06-30 16:22:44.699621,1.0113525390625,0.0826416015625,0.048583984375,8.1787109375,-2.685546875,1.5869140625,12
2021-06-30 16:22:44.761483,1.002685546875,0.0621337890625,0.0546875,7.62939453125,-4.08935546875,0.732421875,12
2021-06-30 16:22:44.824245,0.9974365234375,0.0706787109375,0.04736328125,-2.0751953125,-3.84521484375,-2.0751953125,13
2021-06-30 16:22:44.886301,1.0130615234375,0.08642578125,0.039794921875,-3.96728515625,-4.0283203125,-2.01416015625,13
2021-06-30 16:22:44.948833,1.01708984375,0.084716796875,0.043701171875,2.25830078125,-4.57763671875,-1.28173828125,13
2021-06-30 16:22:45.012662,1.0091552734375,0.06982421875,0.0518798828125,2.86865234375,-5.126953125,-1.46484375,12
2021-06-30 16:22:45.076654,1.004150390625,0.0704345703125,0.0548095703125,-0.244140625,-5.2490234375,-2.25830078125,13
2021-06-30 16:22:45.139278,0.996337890625,0.0750732421875,0.05029296875,-1.28173828125,-5.2490234375,-2.0751953125,13
2021-06-30 16:22:45.202262,0.9903564453125,0.073974609375,0.049560546875,-1.220703125,-5.0048828125,-1.89208984375,13
2021-06-30 16:22:45.264068,0.992919921875,0.0772705078125,0.0496826171875,-1.0986328125,-3.96728515625,-1.708984375,12
2021-06-30 16:22:45.327926,1.0028076171875,0.0633544921875,0.0458984375,-0.6103515625,-2.74658203125,-1.0986328125,12
2021-06-30 16:22:45.390734,1.022216796875,0.0711669921875,0.0477294921875,-2.99072265625,-0.9765625,-0.30517578125,12
2021-06-30 16:22:45.453566,1.034912109375,0.0728759765625,0.050048828125,0.0,-1.52587890625,1.28173828125,12
2021-06-30 16:22:45.515401,1.0008544921875,0.0750732421875,0.0633544921875,2.8076171875,-4.0283203125,1.220703125,12
2021-06-30 16:22:45.578232,0.991943359375,0.06201171875,0.0574951171875,-3.0517578125,-4.150390625,-0.1220703125,12
2021-06-30 16:22:45.656024,0.9945068359375,0.0977783203125,0.0523681640625,-6.89697265625,-3.0517578125,-1.0986328125,13
2021-06-30 16:22:45.716862,0.9989013671875,0.0927734375,0.0535888671875,-1.220703125,-2.685546875,-0.6103515625,12
2021-06-30 16:22:45.777699,1.0167236328125,0.0849609375,0.054443359375,1.40380859375,-1.28173828125,-0.8544921875,13
2021-06-30 16:22:45.838536,1.02001953125,0.082275390625,0.0570068359375,1.03759765625,-1.5869140625,-1.8310546875,12
2021-06-30 16:22:45.918378,1.008056640625,0.084716796875,0.060302734375,0.91552734375,-2.8076171875,-2.685546875,12
2021-06-30 16:22:45.979344,1.0054931640625,0.0784912109375,0.0521240234375,-1.3427734375,-2.74658203125,-3.5400390625,13
2021-06-30 16:22:46.041122,1.006103515625,0.0926513671875,0.050537109375,-3.11279296875,-1.8310546875,-4.57763671875,12
2021-06-30 16:22:46.104106,1.03076171875,0.0799560546875,0.05517578125,0.79345703125,-1.5869140625,-4.638671875,12
2021-06-30 16:22:46.167218,1.018310546875,0.0792236328125,0.0621337890625,2.197265625,-2.38037109375,-5.126953125,12
2021-06-30 16:22:46.230265,1.010009765625,0.072021484375,0.058837890625,0.732421875,-2.50244140625,-4.94384765625,12
2021-06-30 16:22:46.292669,0.99951171875,0.0806884765625,0.05517578125,-0.79345703125,-2.0751953125,-4.33349609375,12
2021-06-30 16:22:46.355688,1.00927734375,0.0885009765625,0.047607421875,-2.5634765625,0.30517578125,-2.44140625,12
2021-06-30 16:22:46.417245,1.02880859375,0.0909423828125,0.041015625,-2.01416015625,2.9296875,-0.8544921875,12
2021-06-30 16:22:46.480569,1.01318359375,0.08154296875,0.04736328125,0.48828125,4.0283203125,-0.79345703125,13
2021-06-30 16:22:46.542390,0.9996337890625,0.07373046875,0.043212890625,0.9765625,3.2958984375,-0.79345703125,12
2021-06-30 16:22:46.604715,0.9967041015625,0.071533203125,0.03759765625,-1.220703125,1.220703125,-0.79345703125,12
2021-06-30 16:22:46.665826,1.0177001953125,0.08984375,0.0389404296875,-2.25830078125,1.3427734375,-0.54931640625,12
2021-06-30 16:22:46.727465,1.0185546875,0.091796875,0.05419921875,-0.8544921875,-1.89208984375,-0.3662109375,13
2021-06-30 16:22:46.789690,0.9954833984375,0.0802001953125,0.0738525390625,3.60107421875,-3.23486328125,-0.42724609375,12
2021-06-30 16:22:46.851778,0.990966796875,0.0966796875,0.094482421875,-6.53076171875,-5.37109375,-1.52587890625,12
2021-06-30 16:22:46.915770,1.0059814453125,0.121337890625,0.1141357421875,-14.5263671875,-5.31005859375,-2.685546875,12
2021-06-30 16:22:46.971992,1.0081787109375,0.166259765625,0.1295166015625,-19.04296875,-2.86865234375,-3.7841796875,12
2021-06-30 16:22:47.078829,0.972412109375,0.1934814453125,0.13134765625,-19.53125,0.3662109375,-6.16455078125,12
2021-06-30 16:22:47.245669,0.9532470703125,0.20654296875,0.152099609375,-15.68603515625,5.2490234375,-11.474609375,12
2021-06-30 16:22:47.354378,0.9521484375,0.244873046875,0.1475830078125,-10.6201171875,12.02392578125,-14.0380859375,12
2021-06-30 16:22:47.457132,0.955078125,0.26708984375,0.17724609375,-11.77978515625,15.625,-15.19775390625,12
2021-06-30 16:22:47.520957,1.0428466796875,0.278076171875,0.234130859375,0.9765625,21.728515625,-12.75634765625,12
2021-06-30 16:22:47.584821,1.1021728515625,0.3135986328125,0.2027587890625,2.01416015625,12.8173828125,-17.51708984375,12
2021-06-30 16:22:47.647113,0.9405517578125,0.26953125,0.2774658203125,-3.90625,-7.32421875,-32.16552734375,13
2021-06-30 16:22:47.709832,0.9356689453125,0.2620849609375,0.255615234375,-27.89306640625,-10.6201171875,-43.5791015625,12
2021-06-30 16:22:47.771764,0.9158935546875,0.30224609375,0.2359619140625,-40.83251953125,-15.68603515625,-49.25537109375,13
2021-06-30 16:22:47.834443,0.8958740234375,0.333740234375,0.25439453125,-39.73388671875,-15.380859375,-49.6826171875,13
2021-06-30 16:22:47.896872,0.848876953125,0.3341064453125,0.217041015625,-14.0380859375,-16.78466796875,-47.54638671875,12
2021-06-30 16:22:47.959289,0.8433837890625,0.293212890625,0.2220458984375,-26.123046875,-18.24951171875,-41.19873046875,13
2021-06-30 16:22:48.022064,0.8427734375,0.315185546875,0.2576904296875,-18.1884765625,-16.11328125,-37.2314453125,12
2021-06-30 16:22:48.083864,0.8046875,0.2967529296875,0.303955078125,-36.1328125,-24.90234375,-33.8134765625,12
2021-06-30 16:22:48.147033,0.767578125,0.275634765625,0.333740234375,-55.35888671875,-32.2265625,-27.64892578125,13
2021-06-30 16:22:48.208942,0.7144775390625,0.2950439453125,0.32958984375,-75.3173828125,-38.2080078125,-25.69580078125,12
2021-06-30 16:22:48.269562,0.650634765625,0.2982177734375,0.2950439453125,-94.6044921875,-48.828125,-24.4140625,12
2021-06-30 16:22:48.330833,0.5260009765625,0.2919921875,0.2484130859375,-78.79638671875,-56.640625,-15.869140625,13
2021-06-30 16:22:48.391998,0.3973388671875,0.2913818359375,0.1513671875,-56.09130859375,-58.89892578125,-7.26318359375,12
2021-06-30 16:22:48.454796,0.4859619140625,0.129638671875,-0.131591796875,-29.052734375,-55.11474609375,17.7001953125,12
2021-06-30 16:22:48.516710,0.7523193359375,0.0975341796875,-0.470947265625,-10.009765625,-32.71484375,69.82421875,12
2021-06-30 16:22:48.579700,0.772705078125,-0.0450439453125,-0.314697265625,17.822265625,-29.6630859375,98.9990234375,12
2021-06-30 16:22:48.642911,0.84375,-0.259765625,-0.3631591796875,-1.46484375,9.21630859375,73.3642578125,12
2021-06-30 16:22:48.704780,0.9324951171875,-0.180419921875,-0.3375244140625,-0.6103515625,-11.23046875,72.57080078125,12
2021-06-30 16:22:48.768144,0.925048828125,0.05517578125,-0.1292724609375,23.92578125,-45.5322265625,93.505859375,13
2021-06-30 16:22:48.829707,1.2413330078125,-0.1690673828125,-0.3597412109375,49.8046875,-42.3583984375,81.1767578125,12
2021-06-30 16:22:48.891867,1.03955078125,-0.280029296875,-0.0875244140625,34.24072265625,-34.72900390625,70.3125,13
2021-06-30 16:22:48.954570,1.1793212890625,0.0594482421875,-0.2103271484375,32.89794921875,-40.52734375,69.76318359375,12
2021-06-30 16:22:49.016983,1.0992431640625,-0.0965576171875,-0.1500244140625,77.0263671875,-49.98779296875,67.3828125,12
2021-06-30 16:22:49.079300,1.11962890625,-0.1148681640625,-0.227783203125,68.4814453125,-34.60693359375,54.443359375,13
2021-06-30 16:22:49.141873,1.129150390625,-0.05224609375,-0.2138671875,52.79541015625,-28.564453125,37.109375,12
2021-06-30 16:22:49.205091,1.2288818359375,-0.1666259765625,-0.2283935546875,45.2880859375,-27.89306640625,30.6396484375,12
2021-06-30 16:22:49.265018,1.34326171875,-0.191162109375,-0.3251953125,12.39013671875,-9.765625,19.95849609375,12
2021-06-30 16:22:49.328429,1.420166015625,-0.049560546875,-0.20068359375,21.3623046875,-11.962890625,18.61572265625,13
2021-06-30 16:22:49.390351,1.66650390625,-0.3330078125,-0.2489013671875,26.67236328125,-1.15966796875,16.9677734375,12
2021-06-30 16:22:49.453962,1.310546875,-0.2259521484375,-0.226806640625,-6.8359375,-2.38037109375,8.7890625,12
2021-06-30 16:22:49.516790,1.307373046875,-0.15283203125,-0.2734375,-15.68603515625,-5.79833984375,3.662109375,12
2021-06-30 16:22:49.578588,1.5682373046875,-0.2557373046875,-0.2454833984375,-25.45166015625,-6.28662109375,-8.60595703125,12
2021-06-30 16:22:49.640858,1.5458984375,-0.241943359375,-0.287353515625,-30.45654296875,-4.638671875,-17.822265625,12
2021-06-30 16:22:49.703164,1.5743408203125,-0.26171875,-0.299072265625,-20.6298828125,-10.92529296875,-25.81787109375,12
2021-06-30 16:22:49.765357,1.28662109375,-0.2237548828125,-0.394775390625,-40.283203125,-5.0048828125,-30.76171875,12
2021-06-30 16:22:49.826744,1.2464599609375,-0.166259765625,-0.445556640625,-63.90380859375,3.35693359375,-37.2314453125,12
2021-06-30 16:22:49.889682,1.187744140625,-0.0955810546875,-0.4827880859375,-82.763671875,8.30078125,-45.95947265625,12
2021-06-30 16:22:49.951928,1.3394775390625,-0.1202392578125,-0.484375,-73.8525390625,12.14599609375,-55.96923828125,12
2021-06-30 16:22:50.013847,1.193359375,-0.171875,-0.4581298828125,-55.72509765625,20.3857421875,-54.3212890625,12
2021-06-30 16:22:50.075760,1.2523193359375,-0.188232421875,-0.3458251953125,-66.95556640625,28.86962890625,-56.70166015625,13
2021-06-30 16:22:50.137879,1.353515625,-0.211669921875,-0.2593994140625,-98.08349609375,44.7998046875,-59.87548828125,13
2021-06-30 16:22:50.199644,1.0867919921875,-0.03369140625,-0.2423095703125,-75.13427734375,62.6220703125,-49.8046875,12
2021-06-30 16:22:50.262058,0.785400390625,0.05126953125,-0.170654296875,-15.869140625,58.28857421875,-43.701171875,12
2021-06-30 16:22:50.323924,0.4739990234375,0.0621337890625,-0.0062255859375,37.59765625,34.912109375,-52.18505859375,13
2021-06-30 16:22:50.387346,0.564453125,-0.0087890625,0.061767578125,36.56005859375,27.03857421875,-70.61767578125,12
2021-06-30 16:22:50.449981,0.656494140625,0.0008544921875,0.079345703125,34.85107421875,5.7373046875,-78.369140625,12
2021-06-30 16:22:50.511918,0.7283935546875,0.03857421875,0.093994140625,33.50830078125,-1.3427734375,-69.03076171875,12
2021-06-30 16:22:50.564836,0.65185546875,0.1314697265625,0.0997314453125,43.76220703125,-5.615234375,-66.58935546875,12
2021-06-30 16:22:50.628928,0.5283203125,0.088623046875,0.0843505859375,37.9638671875,-7.2021484375,-57.373046875,12
2021-06-30 16:22:50.691810,0.5341796875,0.12841796875,0.0677490234375,16.9677734375,-1.3427734375,-46.2646484375,13
2021-06-30 16:22:50.754504,0.52490234375,0.2413330078125,0.0736083984375,11.53564453125,-5.43212890625,-28.1982421875,13
2021-06-30 16:22:50.817089,0.602783203125,0.2578125,0.0355224609375,29.84619140625,-5.67626953125,1.15966796875,12
2021-06-30 16:22:50.880929,0.712158203125,0.3604736328125,0.0321044921875,31.18896484375,-6.103515625,25.08544921875,12
2021-06-30 16:22:50.943015,0.7718505859375,0.3402099609375,0.04345703125,41.1376953125,-10.25390625,26.06201171875,12
2021-06-30 16:22:51.006882,0.787353515625,0.353271484375,0.08203125,38.63525390625,-16.17431640625,25.146484375,12
2021-06-30 16:22:51.067894,0.837890625,0.3267822265625,0.09619140625,33.87451171875,-21.54541015625,36.62109375,12
2021-06-30 16:22:51.134350,0.9765625,0.327880859375,0.0482177734375,17.15087890625,-9.521484375,46.32568359375,13
2021-06-30 16:22:51.197536,0.916748046875,0.3846435546875,0.0364990234375,13.671875,5.9814453125,48.4619140625,12
2021-06-30 16:22:51.258987,0.718017578125,0.2901611328125,0.0638427734375,38.2080078125,16.4794921875,51.513671875,12
2021-06-30 16:22:51.320416,0.81884765625,0.2913818359375,0.0054931640625,38.330078125,39.85595703125,51.94091796875,12
2021-06-30 16:22:51.383672,0.94921875,0.327880859375,-0.0322265625,61.34033203125,40.34423828125,58.837890625,12
2021-06-30 16:22:51.446851,1.0257568359375,0.227294921875,-0.018798828125,95.88623046875,43.3349609375,47.9736328125,13
2021-06-30 16:22:51.507788,1.1365966796875,0.245361328125,0.0413818359375,108.21533203125,48.52294921875,48.76708984375,12
2021-06-30 16:22:51.570703,1.314453125,0.15185546875,-0.0701904296875,99.4873046875,43.45703125,45.41015625,12
2021-06-30 16:22:51.633711,1.1864013671875,0.0670166015625,0.0767822265625,83.06884765625,19.53125,30.2734375,12
2021-06-30 16:22:51.695398,1.1142578125,0.0904541015625,0.0531005859375,23.8037109375,2.5634765625,26.123046875,12
2021-06-30 16:22:51.758767,1.05615234375,0.117431640625,0.0712890625,-12.02392578125,-5.31005859375,12.02392578125,12
2021-06-30 16:22:51.820632,1.0006103515625,0.1650390625,0.05419921875,-39.73388671875,-8.23974609375,-0.42724609375,13
