arrival_time,acc_x,acc_y,acc_z,rot_x,rot_y,rot_z,ir_dist
2021-06-30 16:10:26.468962,1.0103759765625,0.0916748046875,0.043212890625,1.52587890625,-5.43212890625,-1.708984375,12
2021-06-30 16:10:26.532279,1.007080078125,0.0859375,0.04736328125,2.74658203125,-6.40869140625,-2.74658203125,12
2021-06-30 16:10:26.593720,1.004150390625,0.083984375,0.048828125,3.60107421875,-7.4462890625,-3.11279296875,12
2021-06-30 16:10:26.654910,1.0045166015625,0.08251953125,0.052734375,3.84521484375,-7.32421875,-2.86865234375,12
2021-06-30 16:10:26.718066,1.0013427734375,0.0828857421875,0.0557861328125,4.33349609375,-6.77490234375,-1.708984375,13
2021-06-30 16:10:26.779859,0.9970703125,0.0833740234375,0.0565185546875,3.662109375,-5.7373046875,-0.732421875,12
2021-06-30 16:10:26.841773,0.9989013671875,0.0882568359375,0.055419921875,2.197265625,-3.84521484375,0.48828125,12
2021-06-30 16:10:26.903198,1.0006103515625,0.09130859375,0.053955078125,2.13623046875,-2.38037109375,2.0751953125,12
2021-06-30 16:10:26.966275,1.0020751953125,0.09814453125,0.0504150390625,1.220703125,-0.8544921875,2.50244140625,12
2021-06-30 16:10:27.028579,1.0140380859375,0.0989990234375,0.044189453125,2.44140625,-0.48828125,3.2958984375,12
2021-06-30 16:10:27.090746,1.006591796875,0.0966796875,0.0364990234375,1.3427734375,-1.28173828125,1.89208984375,13
2021-06-30 16:10:27.153195,1.0084228515625,0.1005859375,0.0477294921875,-1.5869140625,-1.40380859375,0.06103515625,12
2021-06-30 16:10:27.216135,1.0147705078125,0.11376953125,0.031982421875,-1.5869140625,-1.0986328125,-1.03759765625,12
2021-06-30 16:10:27.277179,1.0042724609375,0.093017578125,0.0416259765625,1.46484375,-3.90625,-2.01416015625,13
2021-06-30 16:10:27.339464,1.006103515625,0.0927734375,0.0404052734375,1.220703125,-3.96728515625,-3.173828125,12
2021-06-30 16:10:27.401715,1.010009765625,0.09033203125,0.037841796875,0.244140625,-5.0048828125,-3.47900390625,12
2021-06-30 16:10:27.463587,0.99951171875,0.0885009765625,0.048583984375,0.6103515625,-5.43212890625,-3.5400390625,13
2021-06-30 16:10:27.525724,1.001953125,0.0833740234375,0.0474853515625,-0.06103515625,-5.4931640625,-3.35693359375,13
2021-06-30 16:10:27.588249,1.0001220703125,0.0872802734375,0.0506591796875,-0.48828125,-4.94384765625,-2.74658203125,12
2021-06-30 16:10:27.651585,0.999755859375,0.0802001953125,0.0506591796875,-0.30517578125,-5.18798828125,-1.77001953125,12
2021-06-30 16:10:27.713730,0.999755859375,0.085693359375,0.05419921875,-0.9765625,-4.7607421875,-1.28173828125,12
2021-06-30 16:10:27.776856,1.0042724609375,0.085693359375,0.0546875,-1.708984375,-4.57763671875,-0.91552734375,13
2021-06-30 16:10:27.840657,1.002197265625,0.0870361328125,0.0531005859375,-1.46484375,-4.57763671875,-0.06103515625,12
2021-06-30 16:10:27.903219,1.0032958984375,0.092529296875,0.058837890625,-1.28173828125,-3.72314453125,0.1220703125,13
2021-06-30 16:10:27.965652,1.0040283203125,0.0889892578125,0.04931640625,-0.30517578125,-4.0283203125,0.6103515625,12
2021-06-30 16:10:28.030479,1.0029296875,0.0950927734375,0.0543212890625,0.18310546875,-3.41796875,-0.18310546875,13
2021-06-30 16:10:28.170106,1.0030517578125,0.0968017578125,0.04736328125,-0.54931640625,-2.74658203125,-0.48828125,13
2021-06-30 16:10:28.278815,1.004150390625,0.0966796875,0.046875,0.42724609375,-2.9296875,-0.732421875,12
2021-06-30 16:10:28.338655,1.007568359375,0.096923828125,0.04638671875,0.67138671875,-2.9296875,-0.48828125,12
2021-06-30 16:10:28.417627,1.0023193359375,0.09033203125,0.0472412109375,1.220703125,-3.72314453125,-1.5869140625,12
2021-06-30 16:10:28.479254,0.99755859375,0.0985107421875,0.04296875,-0.30517578125,-3.60107421875,-1.40380859375,13
2021-06-30 16:10:28.541898,0.9984130859375,0.0933837890625,0.044921875,0.67138671875,-3.96728515625,-1.52587890625,12
2021-06-30 16:10:28.604725,1.000244140625,0.091064453125,0.04736328125,0.18310546875,-3.96728515625,-0.9765625,12
2021-06-30 16:10:28.665740,1.0006103515625,0.09521484375,0.04833984375,-0.3662109375,-4.150390625,-0.54931640625,12
2021-06-30 16:10:28.727955,1.019775390625,0.1024169921875,0.0501708984375,-0.91552734375,-3.35693359375,0.30517578125,12
2021-06-30 16:10:28.790281,1.0262451171875,0.1175537109375,0.0589599609375,-0.79345703125,-3.662109375,0.6103515625,12
2021-06-30 16:10:28.868277,0.998291015625,0.1231689453125,0.0706787109375,-0.732421875,-4.5166015625,-0.79345703125,13
2021-06-30 16:10:28.932627,1.0020751953125,0.127685546875,0.0599365234375,-6.7138671875,-1.5869140625,-1.220703125,12
2021-06-30 16:10:28.993928,1.004150390625,0.1513671875,0.0494384765625,-10.68115234375,1.64794921875,-0.8544921875,12
2021-06-30 16:10:29.056642,0.9857177734375,0.150634765625,0.0523681640625,-10.6201171875,2.99072265625,0.1220703125,12
2021-06-30 16:10:29.118357,0.9951171875,0.1328125,0.0400390625,-15.31982421875,4.5166015625,-1.220703125,12
2021-06-30 16:10:29.178896,1.045166015625,0.157470703125,0.0084228515625,-18.73779296875,0.30517578125,-5.31005859375,12
2021-06-30 16:10:29.239992,1.0054931640625,0.169921875,-0.0291748046875,6.28662109375,-18.61572265625,-11.474609375,12
2021-06-30 16:10:29.302755,0.905029296875,0.1070556640625,-0.039306640625,7.87353515625,-32.2265625,-21.3623046875,12
2021-06-30 16:10:29.365249,0.8248291015625,0.139892578125,-0.0755615234375,-9.765625,-41.56494140625,-28.80859375,13
2021-06-30 16:10:29.427912,0.7470703125,0.1373291015625,-0.017333984375,-13.671875,-45.7763671875,-32.470703125,13
2021-06-30 16:10:29.489747,0.6583251953125,0.12744140625,-0.0089111328125,-19.22607421875,-45.41015625,-33.8134765625,12
2021-06-30 16:10:29.659294,0.66796875,0.11376953125,-0.0230712890625,-31.1279296875,-39.61181640625,-27.89306640625,13
2021-06-30 16:10:29.725207,0.650146484375,0.1328125,-0.024658203125,-39.6728515625,-33.5693359375,-20.32470703125,12
2021-06-30 16:10:29.787127,0.5230712890625,0.145263671875,0.0487060546875,-23.25439453125,-34.11865234375,-16.4794921875,12
2021-06-30 16:10:29.849258,0.4658203125,0.1175537109375,0.0269775390625,-27.83203125,-26.0009765625,-10.80322265625,13
2021-06-30 16:10:29.911961,0.4805908203125,0.191162109375,0.0614013671875,-41.07666015625,-18.61572265625,-11.8408203125,12
2021-06-30 16:10:29.973589,0.547119140625,0.186279296875,0.0498046875,-28.564453125,-9.33837890625,-13.24462890625,12
2021-06-30 16:10:30.036562,0.7415771484375,0.192626953125,0.0283203125,-29.72412109375,3.662109375,-6.28662109375,12
2021-06-30 16:10:30.098739,0.8973388671875,0.3096923828125,0.016845703125,-30.94482421875,13.97705078125,-10.009765625,13
2021-06-30 16:10:30.161829,1.02197265625,0.2850341796875,-0.0364990234375,-13.3056640625,20.81298828125,-10.8642578125,12
2021-06-30 16:10:30.223715,1.0968017578125,0.359375,0.00048828125,7.87353515625,20.01953125,-4.5166015625,12
2021-06-30 16:10:30.286583,1.044189453125,0.2593994140625,0.0279541015625,12.451171875,10.80322265625,-10.498046875,12
2021-06-30 16:10:30.347785,1.1827392578125,0.3104248046875,-0.0546875,-28.13720703125,20.69091796875,-3.96728515625,12
2021-06-30 16:10:30.410056,1.20703125,0.4334716796875,-0.05126953125,-36.4990234375,15.0146484375,3.96728515625,12
2021-06-30 16:10:30.502125,1.2462158203125,0.3321533203125,-0.02880859375,-12.75634765625,6.2255859375,2.0751953125,12
2021-06-30 16:10:30.565836,1.336669921875,0.4022216796875,-0.1180419921875,-44.189453125,1.15966796875,-7.62939453125,12
2021-06-30 16:10:30.626565,1.36376953125,0.4644775390625,-0.1319580078125,-71.71630859375,-6.34765625,-17.15087890625,12
2021-06-30 16:10:30.688319,1.2412109375,0.34716796875,-0.0576171875,-66.650390625,-16.66259765625,-22.8271484375,12
2021-06-30 16:10:30.751198,1.3092041015625,0.3756103515625,0.015625,-89.05029296875,-15.80810546875,-21.728515625,12
2021-06-30 16:10:30.814098,1.3831787109375,0.47021484375,0.0355224609375,-89.66064453125,-10.92529296875,-19.59228515625,12
2021-06-30 16:10:30.876947,1.4140625,0.46240234375,0.083984375,-32.16552734375,-7.99560546875,-14.5263671875,12
2021-06-30 16:10:30.938800,1.59521484375,0.390625,0.0931396484375,-12.0849609375,0.244140625,-4.2724609375,12
2021-06-30 16:10:31.002572,1.7208251953125,0.4544677734375,0.123046875,-19.71435546875,8.544921875,2.9296875,12
2021-06-30 16:10:31.064066,1.717041015625,0.450439453125,0.2149658203125,4.150390625,-3.11279296875,8.6669921875,12
2021-06-30 16:10:31.126594,1.57177734375,0.3387451171875,0.2572021484375,5.79833984375,-9.033203125,12.5732421875,12
2021-06-30 16:10:31.187407,1.4793701171875,0.3289794921875,0.19873046875,-32.71484375,0.1220703125,11.65771484375,12
2021-06-30 16:10:31.250594,1.3956298828125,0.3677978515625,0.1346435546875,-33.447265625,2.62451171875,16.2353515625,13
2021-06-30 16:10:31.313216,1.296142578125,0.361328125,0.14990234375,-5.9814453125,3.11279296875,28.6865234375,13
2021-06-30 16:10:31.376213,1.15576171875,0.2618408203125,0.102783203125,4.0283203125,9.70458984375,28.01513671875,12
2021-06-30 16:10:31.437599,1.0516357421875,0.243408203125,0.061279296875,10.7421875,10.92529296875,20.56884765625,13
2021-06-30 16:10:31.500605,1.016357421875,0.233154296875,0.05419921875,47.9736328125,11.77978515625,17.88330078125,13
2021-06-30 16:10:31.563838,0.8853759765625,0.224365234375,0.067626953125,67.93212890625,8.48388671875,13.5498046875,13
2021-06-30 16:10:31.627657,0.771728515625,0.15625,0.0184326171875,75.74462890625,6.04248046875,6.65283203125,13
2021-06-30 16:10:31.690789,0.64697265625,0.1600341796875,0.01806640625,98.14453125,-3.35693359375,1.77001953125,13
2021-06-30 16:10:31.753727,0.5509033203125,0.1546630859375,0.0069580078125,116.63818359375,-9.21630859375,0.8544921875,12
2021-06-30 16:10:31.816733,0.4962158203125,0.1219482421875,-0.03466796875,113.28125,-9.58251953125,4.5166015625,12
2021-06-30 16:10:31.878811,0.435546875,0.1629638671875,-0.0574951171875,105.5908203125,-10.6201171875,8.7890625,13
2021-06-30 16:10:31.942423,0.40576171875,0.1214599609375,-0.0428466796875,92.6513671875,-13.0615234375,14.16015625,12
2021-06-30 16:10:32.004800,0.4432373046875,0.100830078125,-0.0513916015625,53.64990234375,-10.07080078125,15.380859375,13
2021-06-30 16:10:32.066817,0.5311279296875,0.142822265625,-0.0677490234375,28.1982421875,-7.62939453125,19.22607421875,13
2021-06-30 16:10:32.128353,0.650634765625,0.2010498046875,-0.043212890625,29.96826171875,-5.37109375,29.9072265625,12
2021-06-30 16:10:32.190365,0.63720703125,0.2554931640625,0.029541015625,47.4853515625,-10.6201171875,37.41455078125,13
2021-06-30 16:10:32.253821,0.6260986328125,0.2431640625,0.058837890625,52.3681640625,-12.8173828125,36.1328125,12
2021-06-30 16:10:32.316413,0.8541259765625,0.2567138671875,0.025634765625,38.51318359375,1.89208984375,37.04833984375,12
2021-06-30 16:10:32.378481,1.2276611328125,0.30419921875,-0.064697265625,45.41015625,17.08984375,44.12841796875,12
2021-06-30 16:10:32.440406,1.336181640625,0.3541259765625,-0.0030517578125,37.90283203125,19.34814453125,37.29248046875,12
2021-06-30 16:10:32.501838,1.173583984375,0.1829833984375,0.0999755859375,6.28662109375,3.11279296875,14.95361328125,12
2021-06-30 16:10:32.563850,1.0677490234375,0.156005859375,0.092529296875,-33.5693359375,7.568359375,0.9765625,12
2021-06-30 16:10:32.625567,1.0562744140625,0.1995849609375,0.0135498046875,-58.837890625,5.18798828125,-16.05224609375,12
2021-06-30 16:10:32.686588,0.998779296875,0.1846923828125,-0.032470703125,-48.52294921875,-1.0986328125,-23.37646484375,12
2021-06-30 16:10:32.748206,0.9666748046875,0.1483154296875,-0.0289306640625,-29.052734375,-1.708984375,-30.76171875,12
2021-06-30 16:10:32.811251,0.995849609375,0.106201171875,-0.0283203125,-19.34814453125,1.03759765625,-33.50830078125,12
2021-06-30 16:10:32.872554,1.0247802734375,0.1021728515625,-0.02294921875,-8.1787109375,0.244140625,-33.38623046875,13
2021-06-30 16:10:32.934917,1.0313720703125,0.0697021484375,0.0054931640625,17.63916015625,-4.82177734375,-30.2734375,13
2021-06-30 16:10:32.996624,1.0145263671875,0.0631103515625,0.006591796875,31.1279296875,-12.451171875,-26.30615234375,12
2021-06-30 16:10:33.057482,0.9962158203125,0.0455322265625,0.0179443359375,20.751953125,-16.7236328125,-20.8740234375,12
2021-06-30 16:10:33.118769,1.0008544921875,0.0501708984375,0.0010986328125,13.3056640625,-17.15087890625,-12.51220703125,12
2021-06-30 16:10:33.180589,0.98291015625,0.087890625,0.01025390625,-12.02392578125,-17.02880859375,-4.21142578125,12
2021-06-30 16:10:33.243124,0.97216796875,0.1029052734375,0.0145263671875,-15.31982421875,-14.6484375,1.0986328125,12
2021-06-30 16:10:33.304562,0.9559326171875,0.1290283203125,0.009765625,-9.58251953125,-12.6953125,4.57763671875,13
2021-06-30 16:10:33.367120,0.9776611328125,0.1453857421875,0.0079345703125,-3.60107421875,-10.3759765625,9.21630859375,12
2021-06-30 16:10:33.428442,0.986328125,0.1544189453125,0.0174560546875,0.42724609375,-6.34765625,13.427734375,12
2021-06-30 16:10:33.490387,0.98974609375,0.1624755859375,0.0205078125,1.220703125,-4.08935546875,15.93017578125,13
2021-06-30 16:10:33.552302,1.0084228515625,0.16650390625,0.022216796875,-2.86865234375,-1.40380859375,16.90673828125,13
2021-06-30 16:10:33.613213,1.011962890625,0.2113037109375,0.06494140625,-5.31005859375,-2.5634765625,13.48876953125,13
2021-06-30 16:10:33.676683,1.009033203125,0.2122802734375,0.0069580078125,6.9580078125,-6.04248046875,9.3994140625,12
2021-06-30 16:10:33.739807,1.01904296875,0.1859130859375,0.0059814453125,10.8642578125,-3.662109375,1.64794921875,12
2021-06-30 16:10:33.801551,1.003662109375,0.215087890625,-0.005859375,12.6953125,-2.62451171875,-0.9765625,12
2021-06-30 16:10:33.862666,0.990966796875,0.1922607421875,-0.01171875,7.75146484375,-1.5869140625,-3.173828125,12
2021-06-30 16:10:33.924966,0.9827880859375,0.1805419921875,-0.01220703125,-0.79345703125,2.13623046875,-2.62451171875,12
2021-06-30 16:10:33.986674,0.9876708984375,0.15966796875,-0.0067138671875,-7.6904296875,4.39453125,-3.23486328125,13
2021-06-30 16:10:34.048974,0.9918212890625,0.1392822265625,0.0025634765625,-11.1083984375,4.638671875,-4.638671875,13
2021-06-30 16:10:34.112291,0.995849609375,0.1307373046875,0.0089111328125,-11.04736328125,4.39453125,-5.31005859375,12
2021-06-30 16:10:34.173688,1.007080078125,0.1170654296875,0.0113525390625,-9.3994140625,1.8310546875,-5.37109375,12
2021-06-30 16:10:34.236682,1.0028076171875,0.111572265625,0.0172119140625,-5.9814453125,-0.67138671875,-5.126953125,13
2021-06-30 16:10:34.298305,0.9979248046875,0.109375,0.0123291015625,-2.685546875,-2.685546875,-3.7841796875,12
2021-06-30 16:10:34.361076,0.987548828125,0.112548828125,0.0120849609375,-0.8544921875,-4.57763671875,-1.52587890625,12
2021-06-30 16:10:34.423033,0.984619140625,0.1099853515625,0.011474609375,-1.03759765625,-5.126953125,1.28173828125,12
